local_ts,local_ts_ms,session_id,sequence,sample_rate_hz,watch_sent_at,phone_received_at,server_received_ms,source,ts,ax,ay,az,rx,ry,rz
2026-04-30T16:25:04.090000+00:00,,8FEF31C2-62B1-4245-8456-7AE1464A46A2,0,50,1777566303993,1777566304099,1777566304090,message,1777566303813,-0.006175324320793152,-0.006578706204891205,-0.012246906757354736,-0.00677872821688652,0.001763678970746696,-0.007572863716632128
2026-04-30T16:25:04.090000+00:00,,8FEF31C2-62B1-4245-8456-7AE1464A46A2,0,50,1777566303993,1777566304099,1777566304090,message,1777566303831,-0.002102181315422058,-0.003040030598640442,-0.005092024803161621,-0.01652669534087181,0.00991732720285654,-0.005383479408919811
2026-04-30T16:25:04.090000+00:00,,8FEF31C2-62B1-4245-8456-7AE1464A46A2,0,50,1777566303993,1777566304099,1777566304090,message,1777566303853,-0.0042535364627838135,0.011600255966186523,-0.004641711711883545,0.008771736174821854,0.006956690922379494,0.005599343683570623
2026-04-30T16:25:04.090000+00:00,,8FEF31C2-62B1-4245-8456-7AE1464A46A2,0,50,1777566303993,1777566304099,1777566304090,message,1777566303872,-0.0005864500999450684,0.01157446950674057,-0.006004452705383301,0.021066484972834587,0.0046982541680336,0.014634809456765652
2026-04-30T16:25:04.090000+00:00,,8FEF31C2-62B1-4245-8456-7AE1464A46A2,0,50,1777566303993,1777566304099,1777566304090,message,1777566303892,-0.0025206804275512695,-0.010015338659286499,-0.00596463680267334,-0.017760537564754486,0.006827071309089661,0.0026019560173153877
2026-04-30T16:25:04.090000+00:00,,8FEF31C2-62B1-4245-8456-7AE1464A46A2,0,50,1777566303993,1777566304099,1777566304090,message,1777566303912,-0.004533663392066956,-0.0040786415338516235,-0.002715468406677246,-0.014180450700223446,0.00045933882938697934,-0.002506200224161148
2026-04-30T16:25:04.090000+00:00,,8FEF31C2-62B1-4245-8456-7AE1464A46A2,0,50,1777566303993,1777566304099,1777566304090,message,1777566303932,-0.0032408982515335083,-0.001854032278060913,-0.0045555830001831055,-0.0005293525755405426,-0.0032367862295359373,-0.004334726370871067
2026-04-30T16:25:04.090000+00:00,,8FEF31C2-62B1-4245-8456-7AE1464A46A2,0,50,1777566303993,1777566304099,1777566304090,message,1777566303955,-0.005582034587860107,0.012091964483261108,-0.002837836742401123,0.026839422062039375,0.010121971368789673,0.003914255183190107
2026-04-30T16:25:04.090000+00:00,,8FEF31C2-62B1-4245-8456-7AE1464A46A2,0,50,1777566303993,1777566304099,1777566304090,message,1777566303972,0.004966616630554199,-0.008232608437538147,-0.005354762077331543,-0.0025333818048238754,0.00852042343467474,0.005959349684417248
2026-04-30T16:25:04.090000+00:00,,8FEF31C2-62B1-4245-8456-7AE1464A46A2,0,50,1777566303993,1777566304099,1777566304090,message,1777566303992,-0.003983557224273682,-0.013793908059597015,0.00010186433792114258,-0.04261581972241402,0.002046316396445036,0.0010395325953140855
2026-04-30T16:25:04.256000+00:00,,8FEF31C2-62B1-4245-8456-7AE1464A46A2,1,50,1777566304194,1777566304303,1777566304256,message,1777566304013,-0.007656753063201904,-0.00015967339277267456,-0.0060266852378845215,-0.0010055266320705414,-0.005332085303962231,-0.006935143377631903
2026-04-30T16:25:04.256000+00:00,,8FEF31C2-62B1-4245-8456-7AE1464A46A2,1,50,1777566304194,1777566304303,1777566304256,message,1777566304033,-0.0005541443824768066,0.005945257842540741,-0.004240453243255615,0.01699850708246231,-0.006143931299448013,-0.004473956301808357
2026-04-30T16:25:04.256000+00:00,,8FEF31C2-62B1-4245-8456-7AE1464A46A2,1,50,1777566304194,1777566304303,1777566304256,message,1777566304056,0.002071082592010498,0.0024301037192344666,-0.010066330432891846,-0.0021421629935503006,0.00420614005997777,-0.00903435330837965
2026-04-30T16:25:04.256000+00:00,,8FEF31C2-62B1-4245-8456-7AE1464A46A2,1,50,1777566304194,1777566304303,1777566304256,message,1777566304073,-0.0003766864538192749,0.011940732598304749,-0.006878554821014404,0.021170349791646004,0.004970239475369453,-0.002731769811362028
2026-04-30T16:25:04.256000+00:00,,8FEF31C2-62B1-4245-8456-7AE1464A46A2,1,50,1777566304194,1777566304303,1777566304256,message,1777566304093,-0.005409985780715942,0.005608752369880676,-0.0044991374015808105,0.019146082922816277,0.006888704374432564,-0.002963731298223138
2026-04-30T16:25:04.256000+00:00,,8FEF31C2-62B1-4245-8456-7AE1464A46A2,1,50,1777566304194,1777566304303,1777566304256,message,1777566304113,0.00030547380447387695,-0.007290445268154144,0.0020692944526672363,-0.0042929332703351974,0.0033539668656885624,0.0030183144845068455
2026-04-30T16:25:04.256000+00:00,,8FEF31C2-62B1-4245-8456-7AE1464A46A2,1,50,1777566304194,1777566304303,1777566304256,message,1777566304133,-0.004932790994644165,-0.005857035517692566,-0.0007869601249694824,0.007088353857398033,-0.0034102341160178185,0.0007798743899911642
2026-04-30T16:25:04.256000+00:00,,8FEF31C2-62B1-4245-8456-7AE1464A46A2,1,50,1777566304194,1777566304303,1777566304256,message,1777566304154,-0.00430472195148468,-0.006008736789226532,-2.1338462829589844e-05,0.01193530485033989,-0.00868572760373354,0.0035630373749881983
2026-04-30T16:25:04.256000+00:00,,8FEF31C2-62B1-4245-8456-7AE1464A46A2,1,50,1777566304194,1777566304303,1777566304256,message,1777566304173,-0.0031724274158477783,-0.002761654555797577,-0.010980784893035889,0.003260057419538498,-0.010434512048959732,-0.0011888942681252956
2026-04-30T16:25:04.256000+00:00,,8FEF31C2-62B1-4245-8456-7AE1464A46A2,1,50,1777566304194,1777566304303,1777566304256,message,1777566304193,0.0006225258111953735,-0.0009079203009605408,-0.011434376239776611,-0.008737215772271156,0.0061752814799547195,-0.0003718894440680742
2026-04-30T16:25:04.538000+00:00,,8FEF31C2-62B1-4245-8456-7AE1464A46A2,2,50,1777566304394,1777566304491,1777566304538,message,1777566304213,-0.005480855703353882,0.0016601309180259705,-0.002896428108215332,-0.016388744115829468,0.003110287245362997,0.006041428539901972
2026-04-30T16:25:04.538000+00:00,,8FEF31C2-62B1-4245-8456-7AE1464A46A2,2,50,1777566304394,1777566304491,1777566304538,message,1777566304234,0.0020644664764404297,0.002860061824321747,0.0018537640571594238,-0.014810021966695786,-0.002446930855512619,0.011680139228701591
2026-04-30T16:25:04.538000+00:00,,8FEF31C2-62B1-4245-8456-7AE1464A46A2,2,50,1777566304394,1777566304491,1777566304538,message,1777566304254,-0.0032484084367752075,-0.0013657957315444946,0.0031749606132507324,-0.019303040578961372,-0.009420646354556084,0.0025690924376249313
2026-04-30T16:25:04.538000+00:00,,8FEF31C2-62B1-4245-8456-7AE1464A46A2,2,50,1777566304394,1777566304491,1777566304538,message,1777566304274,0.0004931539297103882,-0.009275197982788086,-0.0013452768325805664,-0.03295493870973587,-0.0025004222989082336,-0.004039914347231388
2026-04-30T16:25:04.538000+00:00,,8FEF31C2-62B1-4245-8456-7AE1464A46A2,2,50,1777566304394,1777566304491,1777566304538,message,1777566304294,-0.005509629845619202,-0.004340693354606628,-0.008723556995391846,-0.011572151444852352,0.0034508295357227325,-0.010231871157884598
2026-04-30T16:25:04.538000+00:00,,8FEF31C2-62B1-4245-8456-7AE1464A46A2,2,50,1777566304394,1777566304491,1777566304538,message,1777566304314,-0.004540145397186279,0.003995366394519806,-0.01599806547164917,-0.0008824877440929413,0.0006881424342282116,-0.004956308286637068
2026-04-30T16:25:04.538000+00:00,,8FEF31C2-62B1-4245-8456-7AE1464A46A2,2,50,1777566304394,1777566304491,1777566304538,message,1777566304335,-0.0031361430883407593,0.010247327387332916,-0.01937997341156006,0.01561792567372322,0.011174567975103855,0.005259151570498943
2026-04-30T16:25:04.538000+00:00,,8FEF31C2-62B1-4245-8456-7AE1464A46A2,2,50,1777566304394,1777566304491,1777566304538,message,1777566304354,0.0013321787118911743,0.010452605783939362,-0.015943944454193115,0.000969739630818367,0.021902084350585938,0.00526165496557951
2026-04-30T16:25:04.538000+00:00,,8FEF31C2-62B1-4245-8456-7AE1464A46A2,2,50,1777566304394,1777566304491,1777566304538,message,1777566304374,0.003921538591384888,0.007753744721412659,-0.005253255367279053,-0.0003133714199066162,0.01901647262275219,0.006498267408460379
2026-04-30T16:25:04.538000+00:00,,8FEF31C2-62B1-4245-8456-7AE1464A46A2,2,50,1777566304394,1777566304491,1777566304538,message,1777566304394,-0.0005944371223449707,0.005590111017227173,0.0007649064064025879,0.03618311882019043,0.01953689195215702,0.008906031027436256
2026-04-30T16:25:05.657000+00:00,,8FEF31C2-62B1-4245-8456-7AE1464A46A2,3,50,1777566305583,1777566305716,1777566305657,background,1777566304213,-0.005480855703353882,0.0016601309180259705,-0.002896428108215332,-0.016388744115829468,0.003110287245362997,0.006041428539901972
2026-04-30T16:25:05.657000+00:00,,8FEF31C2-62B1-4245-8456-7AE1464A46A2,3,50,1777566305583,1777566305716,1777566305657,background,1777566304234,0.0020644664764404297,0.002860061824321747,0.0018537640571594238,-0.014810021966695786,-0.002446930855512619,0.011680139228701591
2026-04-30T16:25:05.657000+00:00,,8FEF31C2-62B1-4245-8456-7AE1464A46A2,3,50,1777566305583,1777566305716,1777566305657,background,1777566304254,-0.0032484084367752075,-0.0013657957315444946,0.0031749606132507324,-0.019303040578961372,-0.009420646354556084,0.0025690924376249313
2026-04-30T16:25:05.657000+00:00,,8FEF31C2-62B1-4245-8456-7AE1464A46A2,3,50,1777566305583,1777566305716,1777566305657,background,1777566304274,0.0004931539297103882,-0.009275197982788086,-0.0013452768325805664,-0.03295493870973587,-0.0025004222989082336,-0.004039914347231388
2026-04-30T16:25:05.657000+00:00,,8FEF31C2-62B1-4245-8456-7AE1464A46A2,3,50,1777566305583,1777566305716,1777566305657,background,1777566304294,-0.005509629845619202,-0.004340693354606628,-0.008723556995391846,-0.011572151444852352,0.0034508295357227325,-0.010231871157884598
2026-04-30T16:25:05.657000+00:00,,8FEF31C2-62B1-4245-8456-7AE1464A46A2,3,50,1777566305583,1777566305716,1777566305657,background,1777566304314,-0.004540145397186279,0.003995366394519806,-0.01599806547164917,-0.0008824877440929413,0.0006881424342282116,-0.004956308286637068
2026-04-30T16:25:05.657000+00:00,,8FEF31C2-62B1-4245-8456-7AE1464A46A2,3,50,1777566305583,1777566305716,1777566305657,background,1777566304335,-0.0031361430883407593,0.010247327387332916,-0.01937997341156006,0.01561792567372322,0.011174567975103855,0.005259151570498943
2026-04-30T16:25:05.657000+00:00,,8FEF31C2-62B1-4245-8456-7AE1464A46A2,3,50,1777566305583,1777566305716,1777566305657,background,1777566304354,0.0013321787118911743,0.010452605783939362,-0.015943944454193115,0.000969739630818367,0.021902084350585938,0.00526165496557951
2026-04-30T16:25:05.657000+00:00,,8FEF31C2-62B1-4245-8456-7AE1464A46A2,3,50,1777566305583,1777566305716,1777566305657,background,1777566304374,0.003921538591384888,0.007753744721412659,-0.005253255367279053,-0.0003133714199066162,0.01901647262275219,0.006498267408460379
2026-04-30T16:25:05.657000+00:00,,8FEF31C2-62B1-4245-8456-7AE1464A46A2,3,50,1777566305583,1777566305716,1777566305657,background,1777566304394,-0.0005944371223449707,0.005590111017227173,0.0007649064064025879,0.03618311882019043,0.01953689195215702,0.008906031027436256
2026-04-30T16:25:05.683000+00:00,,8FEF31C2-62B1-4245-8456-7AE1464A46A2,4,50,1777566305632,1777566305742,1777566305683,background,1777566304415,0.004508852958679199,0.0009815096855163574,0.007890820503234863,0.04636838287115097,0.005692602135241032,0.013574179261922836
2026-04-30T16:25:05.683000+00:00,,8FEF31C2-62B1-4245-8456-7AE1464A46A2,4,50,1777566305632,1777566305742,1777566305683,background,1777566305583,-0.002780243754386902,-0.004518941044807434,0.0020356178283691406,0.0335945263504982,0.0025978952180594206,0.012901518493890762
2026-04-30T16:25:05.683000+00:00,,8FEF31C2-62B1-4245-8456-7AE1464A46A2,4,50,1777566305632,1777566305742,1777566305683,background,1777566305598,0.0006877779960632324,-0.004050217568874359,-0.012024402618408203,0.029909247532486916,0.0031540771014988422,0.006361700128763914
2026-04-30T16:25:05.683000+00:00,,8FEF31C2-62B1-4245-8456-7AE1464A46A2,4,50,1777566305632,1777566305742,1777566305683,background,1777566305607,-0.0032997578382492065,-0.007131822407245636,-0.017504453659057617,0.0174762774258852,0.014329081401228905,0.0036998174618929625
2026-04-30T16:25:05.683000+00:00,,8FEF31C2-62B1-4245-8456-7AE1464A46A2,4,50,1777566305632,1777566305742,1777566305683,background,1777566305611,-0.0009719282388687134,0.013054326176643372,-0.0015494227409362793,0.043544359505176544,0.013462945818901062,0.014344578608870506
2026-04-30T16:25:05.683000+00:00,,8FEF31C2-62B1-4245-8456-7AE1464A46A2,4,50,1777566305632,1777566305742,1777566305683,background,1777566305615,0.0015810281038284302,-0.00017593801021575928,0.0029351115226745605,0.03833868354558945,0.005780639126896858,0.019872715696692467
2026-04-30T16:25:05.683000+00:00,,8FEF31C2-62B1-4245-8456-7AE1464A46A2,4,50,1777566305632,1777566305742,1777566305683,background,1777566305618,-0.0016264766454696655,0.002476230263710022,0.005849778652191162,0.029222948476672173,0.008597350679337978,0.026249442249536514
2026-04-30T16:25:05.683000+00:00,,8FEF31C2-62B1-4245-8456-7AE1464A46A2,4,50,1777566305632,1777566305742,1777566305683,background,1777566305624,0.004627883434295654,-0.003322683274745941,-0.005405902862548828,0.037550121545791626,-0.0008496808586642146,0.02037977986037731
2026-04-30T16:25:05.683000+00:00,,8FEF31C2-62B1-4245-8456-7AE1464A46A2,4,50,1777566305632,1777566305742,1777566305683,background,1777566305628,0.002531394362449646,0.009247511625289917,-0.003805696964263916,0.026698539033532143,-0.0017220943700522184,0.023180628195405006
2026-04-30T16:25:05.683000+00:00,,8FEF31C2-62B1-4245-8456-7AE1464A46A2,4,50,1777566305632,1777566305742,1777566305683,background,1777566305631,-0.0073893070220947266,-0.0007682368159294128,-0.006837248802185059,0.022391939535737038,0.008638439700007439,0.015579752624034882
2026-04-30T16:25:06.825000+00:00,,8FEF31C2-62B1-4245-8456-7AE1464A46A2,5,50,1777566306735,1777566306878,1777566306825,background,1777566305635,-0.004918649792671204,-0.000718824565410614,-0.014506697654724121,0.028466613963246346,0.010318437591195107,0.009312216192483902
2026-04-30T16:25:06.825000+00:00,,8FEF31C2-62B1-4245-8456-7AE1464A46A2,5,50,1777566306735,1777566306878,1777566306825,background,1777566305641,-0.017406046390533447,-0.01687368005514145,-0.025083482265472412,0.031645625829696655,0.03652067109942436,0.006762932054698467
2026-04-30T16:25:06.825000+00:00,,8FEF31C2-62B1-4245-8456-7AE1464A46A2,5,50,1777566306735,1777566306878,1777566306825,background,1777566305645,-0.010962530970573425,-0.03433488309383392,-0.04242783784866333,0.029055168852210045,0.07621124386787415,-0.001069211633875966
2026-04-30T16:25:06.825000+00:00,,8FEF31C2-62B1-4245-8456-7AE1464A46A2,5,50,1777566306735,1777566306878,1777566306825,background,1777566305648,-0.012492209672927856,-0.022507406771183014,-0.07033300399780273,0.0771888792514801,0.12046559900045395,-0.0458066426217556
2026-04-30T16:25:06.825000+00:00,,8FEF31C2-62B1-4245-8456-7AE1464A46A2,5,50,1777566306735,1777566306878,1777566306825,background,1777566305651,-0.02730037271976471,-0.031584396958351135,-0.07338154315948486,0.10319545120000839,0.17504248023033142,-0.09762030839920044
2026-04-30T16:25:06.825000+00:00,,8FEF31C2-62B1-4245-8456-7AE1464A46A2,5,50,1777566306735,1777566306878,1777566306825,background,1777566305657,-0.041280597448349,-0.0775708481669426,-0.06033468246459961,0.0023814812302589417,0.22216704487800598,-0.19900327920913696
2026-04-30T16:25:06.825000+00:00,,8FEF31C2-62B1-4245-8456-7AE1464A46A2,5,50,1777566306735,1777566306878,1777566306825,background,1777566305661,-0.058781519532203674,-0.10373833030462265,-0.05058485269546509,-0.039122018963098526,0.254513680934906,-0.30797216296195984
2026-04-30T16:25:06.825000+00:00,,8FEF31C2-62B1-4245-8456-7AE1464A46A2,5,50,1777566306735,1777566306878,1777566306825,background,1777566305664,-0.09914223849773407,-0.11427374929189682,-0.08038264513015747,0.06256945431232452,0.29918137192726135,-0.49166637659072876
2026-04-30T16:25:06.825000+00:00,,8FEF31C2-62B1-4245-8456-7AE1464A46A2,5,50,1777566306735,1777566306878,1777566306825,background,1777566305668,-0.14705094695091248,-0.11194649338722229,-0.10474210977554321,0.18635106086730957,0.355106383562088,-0.660915195941925
2026-04-30T16:25:06.825000+00:00,,8FEF31C2-62B1-4245-8456-7AE1464A46A2,5,50,1777566306735,1777566306878,1777566306825,background,1777566306735,-0.2070307433605194,-0.06955183297395706,-0.12632709741592407,0.2610447108745575,0.44023191928863525,-0.8736921548843384
2026-04-30T16:25:06.896000+00:00,,8FEF31C2-62B1-4245-8456-7AE1464A46A2,6,50,1777566306787,1777566306909,1777566306896,background,1777566306738,-0.13433578610420227,-0.08932650834321976,-0.1265680193901062,0.18929597735404968,0.48182225227355957,-1.0228941440582275
2026-04-30T16:25:06.896000+00:00,,8FEF31C2-62B1-4245-8456-7AE1464A46A2,6,50,1777566306787,1777566306909,1777566306896,background,1777566306754,-0.10835598409175873,-0.11707444489002228,-0.06959295272827148,-0.03790655359625816,0.5214599967002869,-1.1818138360977173
2026-04-30T16:25:06.896000+00:00,,8FEF31C2-62B1-4245-8456-7AE1464A46A2,6,50,1777566306787,1777566306909,1777566306896,background,1777566306754,-0.16498211026191711,-0.07418856769800186,-0.0099678635597229,-0.1693439483642578,0.5173694491386414,-1.280807614326477
2026-04-30T16:25:06.896000+00:00,,8FEF31C2-62B1-4245-8456-7AE1464A46A2,6,50,1777566306787,1777566306909,1777566306896,background,1777566306763,-0.1681613326072693,-0.0767015591263771,0.009389042854309082,-0.3663419485092163,0.46305981278419495,-1.4233911037445068
2026-04-30T16:25:06.896000+00:00,,8FEF31C2-62B1-4245-8456-7AE1464A46A2,6,50,1777566306787,1777566306909,1777566306896,background,1777566306767,-0.17179280519485474,-0.12224307656288147,0.005689501762390137,-0.7338746786117554,0.43083181977272034,-1.552651047706604
2026-04-30T16:25:06.896000+00:00,,8FEF31C2-62B1-4245-8456-7AE1464A46A2,6,50,1777566306787,1777566306909,1777566306896,background,1777566306771,-0.1659431755542755,-0.09008652716875076,-0.0035427212715148926,-0.9214560389518738,0.4225195050239563,-1.6592844724655151
2026-04-30T16:25:06.896000+00:00,,8FEF31C2-62B1-4245-8456-7AE1464A46A2,6,50,1777566306787,1777566306909,1777566306896,background,1777566306776,-0.14794117212295532,-0.07066543400287628,-0.028476476669311523,-1.0166126489639282,0.3913053274154663,-1.769220232963562
2026-04-30T16:25:06.896000+00:00,,8FEF31C2-62B1-4245-8456-7AE1464A46A2,6,50,1777566306787,1777566306909,1777566306896,background,1777566306780,-0.13080301880836487,-0.05467395856976509,-0.03172999620437622,-1.154312014579773,0.39423030614852905,-1.8487849235534668
2026-04-30T16:25:06.896000+00:00,,8FEF31C2-62B1-4245-8456-7AE1464A46A2,6,50,1777566306787,1777566306909,1777566306896,background,1777566306783,-0.11142709851264954,-0.07698675990104675,-0.01875925064086914,-1.4583075046539307,0.41524049639701843,-1.8945707082748413
2026-04-30T16:25:06.896000+00:00,,8FEF31C2-62B1-4245-8456-7AE1464A46A2,6,50,1777566306787,1777566306909,1777566306896,background,1777566306787,-0.10731497406959534,-0.07995996624231339,0.006582200527191162,-1.7294739484786987,0.4554324746131897,-1.9583444595336914
2026-04-30T16:25:06.959000+00:00,,8FEF31C2-62B1-4245-8456-7AE1464A46A2,7,50,1777566306829,1777566306960,1777566306959,background,1777566306793,-0.11430293321609497,-0.037794604897499084,0.02295762300491333,-1.6732836961746216,0.4806564152240753,-1.9808520078659058
2026-04-30T16:25:06.959000+00:00,,8FEF31C2-62B1-4245-8456-7AE1464A46A2,7,50,1777566306829,1777566306960,1777566306959,background,1777566306797,-0.12794828414916992,0.05300930142402649,0.04123997688293457,-1.2666631937026978,0.521186113357544,-1.9471160173416138
2026-04-30T16:25:06.959000+00:00,,8FEF31C2-62B1-4245-8456-7AE1464A46A2,7,50,1777566306829,1777566306960,1777566306959,background,1777566306800,-0.12304776906967163,0.12335911393165588,0.050894856452941895,-0.7396209836006165,0.5323136448860168,-1.9073736667633057
2026-04-30T16:25:06.959000+00:00,,8FEF31C2-62B1-4245-8456-7AE1464A46A2,7,50,1777566306829,1777566306960,1777566306959,background,1777566306803,-0.06895548105239868,0.15948036313056946,0.07870358228683472,-0.41787412762641907,0.5476199984550476,-1.7952171564102173
2026-04-30T16:25:06.959000+00:00,,8FEF31C2-62B1-4245-8456-7AE1464A46A2,7,50,1777566306829,1777566306960,1777566306959,background,1777566306809,-0.053743600845336914,0.15988408029079437,0.08761966228485107,-0.18258251249790192,0.4527588188648224,-1.7184319496154785
2026-04-30T16:25:06.959000+00:00,,8FEF31C2-62B1-4245-8456-7AE1464A46A2,7,50,1777566306829,1777566306960,1777566306959,background,1777566306813,-0.03974524140357971,0.12845787405967712,0.13368523120880127,-0.13875220715999603,0.3911256492137909,-1.6273720264434814
2026-04-30T16:25:06.959000+00:00,,8FEF31C2-62B1-4245-8456-7AE1464A46A2,7,50,1777566306829,1777566306960,1777566306959,background,1777566306816,-0.0037488937377929688,0.11799782514572144,0.12930190563201904,-0.09193170070648193,0.33863094449043274,-1.4586261510849
2026-04-30T16:25:06.959000+00:00,,8FEF31C2-62B1-4245-8456-7AE1464A46A2,7,50,1777566306829,1777566306960,1777566306959,background,1777566306820,0.035017967224121094,0.09054979681968689,0.09857076406478882,-0.14875583350658417,0.23207330703735352,-1.3680179119110107
2026-04-30T16:25:06.959000+00:00,,8FEF31C2-62B1-4245-8456-7AE1464A46A2,7,50,1777566306829,1777566306960,1777566306959,background,1777566306825,0.07404500246047974,0.05091997981071472,0.14459991455078125,-0.5443095564842224,0.16348321735858917,-1.2577403783798218
2026-04-30T16:25:06.959000+00:00,,8FEF31C2-62B1-4245-8456-7AE1464A46A2,7,50,1777566306829,1777566306960,1777566306959,background,1777566306829,0.08471265435218811,0.059779345989227295,0.1379656195640564,-0.9324365258216858,0.09332209080457687,-1.1296131610870361
2026-04-30T16:25:07.010000+00:00,,8FEF31C2-62B1-4245-8456-7AE1464A46A2,8,50,1777566306878,1777566306995,1777566307010,background,1777566306833,0.07985249161720276,0.11027035117149353,0.14504581689834595,-1.0206505060195923,0.03437937796115875,-0.9846211075782776
2026-04-30T16:25:07.010000+00:00,,8FEF31C2-62B1-4245-8456-7AE1464A46A2,8,50,1777566306878,1777566306995,1777566307010,background,1777566306837,0.0837448239326477,0.15002501010894775,0.14905619621276855,-0.860304594039917,-0.04739557206630707,-0.8253154754638672
2026-04-30T16:25:07.010000+00:00,,8FEF31C2-62B1-4245-8456-7AE1464A46A2,8,50,1777566306878,1777566306995,1777566307010,background,1777566306842,0.11299300193786621,0.15737944841384888,0.1300487518310547,-0.6550139784812927,-0.118917316198349,-0.7047391533851624
2026-04-30T16:25:07.010000+00:00,,8FEF31C2-62B1-4245-8456-7AE1464A46A2,8,50,1777566306878,1777566306995,1777566307010,background,1777566306849,0.15045636892318726,0.08891722559928894,0.08860385417938232,-0.6518868803977966,-0.17974352836608887,-0.5898579955101013
2026-04-30T16:25:07.010000+00:00,,8FEF31C2-62B1-4245-8456-7AE1464A46A2,8,50,1777566306878,1777566306995,1777566307010,background,1777566306853,0.16299715638160706,0.02734076976776123,0.07000523805618286,-0.8199294209480286,-0.2150268703699112,-0.5041060447692871
2026-04-30T16:25:07.010000+00:00,,8FEF31C2-62B1-4245-8456-7AE1464A46A2,8,50,1777566306878,1777566306995,1777566307010,background,1777566306860,0.1527029573917389,-0.02450340986251831,0.05710875988006592,-0.925165057182312,-0.23542135953903198,-0.47255101799964905
2026-04-30T16:25:07.010000+00:00,,8FEF31C2-62B1-4245-8456-7AE1464A46A2,8,50,1777566306878,1777566306995,1777566307010,background,1777566306864,0.1355023980140686,0.012882709503173828,0.02878415584564209,-0.9182261824607849,-0.2109677940607071,-0.3724782466888428
2026-04-30T16:25:07.010000+00:00,,8FEF31C2-62B1-4245-8456-7AE1464A46A2,8,50,1777566306878,1777566306995,1777566307010,background,1777566306867,0.09217977523803711,0.1197231113910675,-0.004509091377258301,-0.5383056998252869,-0.19118720293045044,-0.3252810835838318
2026-04-30T16:25:07.010000+00:00,,8FEF31C2-62B1-4245-8456-7AE1464A46A2,8,50,1777566306878,1777566306995,1777566307010,background,1777566306872,0.07270210981369019,0.15851318836212158,-0.04630744457244873,-0.06470514833927155,-0.15956498682498932,-0.24355684220790863
2026-04-30T16:25:07.010000+00:00,,8FEF31C2-62B1-4245-8456-7AE1464A46A2,8,50,1777566306878,1777566306995,1777566307010,background,1777566306878,0.0693255364894867,0.08179032802581787,-0.055751681327819824,0.07016026228666306,-0.10906768590211868,-0.1619754284620285
2026-04-30T16:25:07.036000+00:00,,8FEF31C2-62B1-4245-8456-7AE1464A46A2,9,50,1777566306927,1777566307023,1777566307036,background,1777566306882,0.07474546134471893,-0.019534289836883545,-0.03405141830444336,-0.027019549161195755,-0.07862426340579987,-0.12154417484998703
2026-04-30T16:25:07.036000+00:00,,8FEF31C2-62B1-4245-8456-7AE1464A46A2,9,50,1777566306927,1777566307023,1777566307036,background,1777566306886,0.06213638186454773,-0.06622645258903503,0.022922217845916748,-0.11152271926403046,-0.08426661789417267,-0.1963888555765152
2026-04-30T16:25:07.036000+00:00,,8FEF31C2-62B1-4245-8456-7AE1464A46A2,9,50,1777566306927,1777566307023,1777566307036,background,1777566306892,0.07001836597919464,-0.0847228467464447,0.043844640254974365,-0.1851106584072113,-0.13465240597724915,-0.24733950197696686
2026-04-30T16:25:07.036000+00:00,,8FEF31C2-62B1-4245-8456-7AE1464A46A2,9,50,1777566306927,1777566307023,1777566307036,background,1777566306896,0.05731402337551117,-0.06471362709999084,0.010298848152160645,-0.23884445428848267,-0.179369255900383,-0.21432194113731384
2026-04-30T16:25:07.036000+00:00,,8FEF31C2-62B1-4245-8456-7AE1464A46A2,9,50,1777566306927,1777566307023,1777566307036,background,1777566306900,0.03079429268836975,0.00851905345916748,-0.003039717674255371,-0.19179359078407288,-0.21529962122440338,-0.18328039348125458
2026-04-30T16:25:07.036000+00:00,,8FEF31C2-62B1-4245-8456-7AE1464A46A2,9,50,1777566306927,1777566307023,1777566307036,background,1777566306905,0.01595713198184967,0.01519399881362915,0.0015276670455932617,-0.1302410066127777,-0.22559121251106262,-0.16588032245635986
2026-04-30T16:25:07.036000+00:00,,8FEF31C2-62B1-4245-8456-7AE1464A46A2,9,50,1777566306927,1777566307023,1777566307036,background,1777566306912,0.03064882755279541,-0.013334840536117554,0.00742107629776001,-0.07599162310361862,-0.2696239948272705,-0.17569923400878906
2026-04-30T16:25:07.036000+00:00,,8FEF31C2-62B1-4245-8456-7AE1464A46A2,9,50,1777566306927,1777566307023,1777566307036,background,1777566306916,0.044140949845314026,-0.021089553833007812,0.021765530109405518,-0.153248593211174,-0.24943585693836212,-0.2499660700559616
2026-04-30T16:25:07.036000+00:00,,8FEF31C2-62B1-4245-8456-7AE1464A46A2,9,50,1777566306927,1777566307023,1777566307036,background,1777566306920,0.017955556511878967,-0.06979495286941528,-0.022611558437347412,-0.24835991859436035,-0.24269498884677887,-0.31969448924064636
2026-04-30T16:25:07.036000+00:00,,8FEF31C2-62B1-4245-8456-7AE1464A46A2,9,50,1777566306927,1777566307023,1777566307036,background,1777566306926,0.00041854381561279297,-0.09752383828163147,-0.02030843496322632,-0.44821205735206604,-0.24568778276443481,-0.314116507768631
2026-04-30T16:25:07.910000+00:00,,8FEF31C2-62B1-4245-8456-7AE1464A46A2,10,50,1777566307821,1777566307965,1777566307910,background,1777566306932,-0.0036619752645492554,0.00024574995040893555,-0.06284242868423462,-0.6364187002182007,-0.18159298598766327,-0.200300395488739
2026-04-30T16:25:07.910000+00:00,,8FEF31C2-62B1-4245-8456-7AE1464A46A2,10,50,1777566307821,1777566307965,1777566307910,background,1777566306935,-0.034001097083091736,0.05751901865005493,-0.13936811685562134,-0.8291117548942566,-0.06604930758476257,-0.1227085068821907
2026-04-30T16:25:07.910000+00:00,,8FEF31C2-62B1-4245-8456-7AE1464A46A2,10,50,1777566307821,1777566307965,1777566307910,background,1777566306942,-0.03859074413776398,0.0676417350769043,-0.08799088001251221,-0.6236096620559692,0.02901245839893818,-0.1421552300453186
2026-04-30T16:25:07.910000+00:00,,8FEF31C2-62B1-4245-8456-7AE1464A46A2,10,50,1777566307821,1777566307965,1777566307910,background,1777566306950,-0.015031367540359497,0.09415978193283081,-0.07338666915893555,-0.2811436951160431,0.09843014925718307,-0.15258751809597015
2026-04-30T16:25:07.910000+00:00,,8FEF31C2-62B1-4245-8456-7AE1464A46A2,10,50,1777566307821,1777566307965,1777566307910,background,1777566306955,0.025869116187095642,0.01773214340209961,-0.029330849647521973,-0.19642215967178345,0.09001299738883972,-0.1898268759250641
2026-04-30T16:25:07.910000+00:00,,8FEF31C2-62B1-4245-8456-7AE1464A46A2,10,50,1777566307821,1777566307965,1777566307910,background,1777566306960,0.0511920303106308,-0.12062090635299683,-0.010467529296875,-0.4981306195259094,0.030861567705869675,-0.1943775862455368
2026-04-30T16:25:07.910000+00:00,,8FEF31C2-62B1-4245-8456-7AE1464A46A2,10,50,1777566307821,1777566307965,1777566307910,background,1777566306964,0.059676140546798706,-0.14671504497528076,0.016056060791015625,-1.0876753330230713,0.044994011521339417,-0.20341730117797852
2026-04-30T16:25:07.910000+00:00,,8FEF31C2-62B1-4245-8456-7AE1464A46A2,10,50,1777566307821,1777566307965,1777566307910,background,1777566306968,0.06909514963626862,-0.16180646419525146,0.010150432586669922,-1.6819546222686768,-0.008671879768371582,-0.2687462568283081
2026-04-30T16:25:07.910000+00:00,,8FEF31C2-62B1-4245-8456-7AE1464A46A2,10,50,1777566307821,1777566307965,1777566307910,background,1777566307820,-0.020071104168891907,-0.030669033527374268,-0.03946202993392944,-1.8439792394638062,0.04524195194244385,-0.1889563351869583
2026-04-30T16:25:07.910000+00:00,,8FEF31C2-62B1-4245-8456-7AE1464A46A2,10,50,1777566307821,1777566307965,1777566307910,background,1777566307821,-0.18519644439220428,0.06861120462417603,-0.11499738693237305,-1.5804102420806885,0.31460097432136536,-0.07877764850854874
2026-04-30T16:25:07.948000+00:00,,8FEF31C2-62B1-4245-8456-7AE1464A46A2,11,50,1777566307868,1777566307996,1777566307948,background,1777566307835,-0.1926746517419815,0.06368106603622437,-0.11069542169570923,-1.9758590459823608,0.5339899659156799,-0.020368553698062897
2026-04-30T16:25:07.948000+00:00,,8FEF31C2-62B1-4245-8456-7AE1464A46A2,11,50,1777566307868,1777566307996,1777566307948,background,1777566307836,-0.1641821414232254,-0.037078857421875,-0.22113031148910522,-2.025012731552124,0.7701151967048645,0.15193690359592438
2026-04-30T16:25:07.948000+00:00,,8FEF31C2-62B1-4245-8456-7AE1464A46A2,11,50,1777566307868,1777566307996,1777566307948,background,1777566307844,-0.14196309447288513,-0.04689151048660278,-0.08745217323303223,-2.422475576400757,0.8506991863250732,0.199053555727005
2026-04-30T16:25:07.948000+00:00,,8FEF31C2-62B1-4245-8456-7AE1464A46A2,11,50,1777566307868,1777566307996,1777566307948,background,1777566307848,-0.10932852327823639,-0.05331140756607056,0.01591789722442627,-2.583672523498535,0.9269247651100159,0.29604265093803406
2026-04-30T16:25:07.948000+00:00,,8FEF31C2-62B1-4245-8456-7AE1464A46A2,11,50,1777566307868,1777566307996,1777566307948,background,1777566307848,-0.06375552713871002,-0.014005064964294434,0.06049102544784546,-2.5291121006011963,0.9232088923454285,0.3686988949775696
2026-04-30T16:25:07.948000+00:00,,8FEF31C2-62B1-4245-8456-7AE1464A46A2,11,50,1777566307868,1777566307996,1777566307948,background,1777566307852,-0.03311970829963684,-0.0129813551902771,0.042455196380615234,-2.434483528137207,0.9435310959815979,0.45446208119392395
2026-04-30T16:25:07.948000+00:00,,8FEF31C2-62B1-4245-8456-7AE1464A46A2,11,50,1777566307868,1777566307996,1777566307948,background,1777566307855,-0.004861772060394287,-0.015723109245300293,0.043599456548690796,-2.4400861263275146,0.9274224638938904,0.5273807644844055
2026-04-30T16:25:07.948000+00:00,,8FEF31C2-62B1-4245-8456-7AE1464A46A2,11,50,1777566307868,1777566307996,1777566307948,background,1777566307860,0.0009012818336486816,-0.03556555509567261,0.06254857778549194,-2.4618875980377197,0.848743736743927,0.5228859186172485
2026-04-30T16:25:07.948000+00:00,,8FEF31C2-62B1-4245-8456-7AE1464A46A2,11,50,1777566307868,1777566307996,1777566307948,background,1777566307864,0.03340676426887512,0.00472027063369751,0.14076846837997437,-2.259661912918091,0.7310675978660583,0.5510507225990295
2026-04-30T16:25:07.948000+00:00,,8FEF31C2-62B1-4245-8456-7AE1464A46A2,11,50,1777566307868,1777566307996,1777566307948,background,1777566307868,0.07137703895568848,0.09472346305847168,0.12832623720169067,-1.8525991439819336,0.49933964014053345,0.5090076923370361
2026-04-30T16:25:07.979000+00:00,,8FEF31C2-62B1-4245-8456-7AE1464A46A2,12,50,1777566307910,1777566308031,1777566307979,background,1777566307872,0.08682122826576233,0.08407342433929443,0.1526109278202057,-1.4174211025238037,0.21136122941970825,0.46372929215431213
2026-04-30T16:25:07.979000+00:00,,8FEF31C2-62B1-4245-8456-7AE1464A46A2,12,50,1777566307910,1777566308031,1777566307979,background,1777566307877,0.0622536838054657,0.0710483193397522,0.1800253689289093,-1.2589951753616333,0.06275078654289246,0.4985419511795044
2026-04-30T16:25:07.979000+00:00,,8FEF31C2-62B1-4245-8456-7AE1464A46A2,12,50,1777566307910,1777566308031,1777566307979,background,1777566307881,0.06452041864395142,0.07623571157455444,0.12330102920532227,-1.2053577899932861,-0.08315965533256531,0.4939230680465698
2026-04-30T16:25:07.979000+00:00,,8FEF31C2-62B1-4245-8456-7AE1464A46A2,12,50,1777566307910,1777566308031,1777566307979,background,1777566307884,0.06373709440231323,-0.017947077751159668,0.10155248641967773,-1.287052035331726,-0.19585824012756348,0.5076059103012085
2026-04-30T16:25:07.979000+00:00,,8FEF31C2-62B1-4245-8456-7AE1464A46A2,12,50,1777566307910,1777566308031,1777566307979,background,1777566307887,0.0427287220954895,-0.04875493049621582,0.08451145887374878,-1.4319227933883667,-0.27903124690055847,0.45508235692977905
2026-04-30T16:25:07.979000+00:00,,8FEF31C2-62B1-4245-8456-7AE1464A46A2,12,50,1777566307910,1777566308031,1777566307979,background,1777566307892,0.045395851135253906,-0.0010166764259338379,0.08984984457492828,-1.395818829536438,-0.3119152784347534,0.43416720628738403
2026-04-30T16:25:07.979000+00:00,,8FEF31C2-62B1-4245-8456-7AE1464A46A2,12,50,1777566307910,1777566308031,1777566307979,background,1777566307897,0.08691033720970154,0.06879299879074097,0.06919415295124054,-1.1631946563720703,-0.40029439330101013,0.5395522713661194
2026-04-30T16:25:07.979000+00:00,,8FEF31C2-62B1-4245-8456-7AE1464A46A2,12,50,1777566307910,1777566308031,1777566307979,background,1777566307901,0.08610743284225464,0.07303202152252197,0.04176676273345947,-1.1007152795791626,-0.49985602498054504,0.581180989742279
2026-04-30T16:25:07.979000+00:00,,8FEF31C2-62B1-4245-8456-7AE1464A46A2,12,50,1777566307910,1777566308031,1777566307979,background,1777566307904,0.03272801637649536,0.008033335208892822,-0.06401132047176361,-0.8797165751457214,-0.4577362835407257,0.5224332213401794
2026-04-30T16:25:07.979000+00:00,,8FEF31C2-62B1-4245-8456-7AE1464A46A2,12,50,1777566307910,1777566308031,1777566307979,background,1777566307909,0.012344896793365479,-0.008017241954803467,-0.051131606101989746,-0.7102777361869812,-0.40148112177848816,0.5305904150009155
2026-04-30T16:25:08.033000+00:00,,8FEF31C2-62B1-4245-8456-7AE1464A46A2,13,50,1777566307955,1777566308050,1777566308033,background,1777566307914,0.026116877794265747,0.039469897747039795,0.02384081482887268,-0.3801581561565399,-0.4640226364135742,0.5329838991165161
2026-04-30T16:25:08.033000+00:00,,8FEF31C2-62B1-4245-8456-7AE1464A46A2,13,50,1777566307955,1777566308050,1777566308033,background,1777566307917,0.031229138374328613,0.07888245582580566,0.033609405159950256,-0.011893859133124352,-0.5487210750579834,0.5205286145210266
2026-04-30T16:25:08.033000+00:00,,8FEF31C2-62B1-4245-8456-7AE1464A46A2,13,50,1777566307955,1777566308050,1777566308033,background,1777566307921,0.026574313640594482,0.055273473262786865,-0.06035071611404419,0.2453312873840332,-0.5753723978996277,0.434868723154068
2026-04-30T16:25:08.033000+00:00,,8FEF31C2-62B1-4245-8456-7AE1464A46A2,13,50,1777566307955,1777566308050,1777566308033,background,1777566307930,-0.007767051458358765,-0.10299748182296753,0.05729752779006958,-0.0288560651242733,-0.5699549317359924,0.3353419899940491
2026-04-30T16:25:08.033000+00:00,,8FEF31C2-62B1-4245-8456-7AE1464A46A2,13,50,1777566307955,1777566308050,1777566308033,background,1777566307934,-0.009281575679779053,-0.16921526193618774,0.08363848924636841,-0.6173922419548035,-0.6543769836425781,0.22727884352207184
2026-04-30T16:25:08.033000+00:00,,8FEF31C2-62B1-4245-8456-7AE1464A46A2,13,50,1777566307955,1777566308050,1777566308033,background,1777566307938,0.020054280757904053,0.03586488962173462,-0.0032145828008651733,-0.4554198980331421,-0.6796765923500061,0.26423537731170654
2026-04-30T16:25:08.033000+00:00,,8FEF31C2-62B1-4245-8456-7AE1464A46A2,13,50,1777566307955,1777566308050,1777566308033,background,1777566307945,0.024978697299957275,0.10662013292312622,0.01258687674999237,-0.016475031152367592,-0.7374906539916992,0.26288890838623047
2026-04-30T16:25:08.033000+00:00,,8FEF31C2-62B1-4245-8456-7AE1464A46A2,13,50,1777566307955,1777566308050,1777566308033,background,1777566307948,-0.023121178150177002,-0.030857205390930176,-0.04529327154159546,-0.0479101836681366,-0.6874551177024841,0.20991790294647217
2026-04-30T16:25:08.033000+00:00,,8FEF31C2-62B1-4245-8456-7AE1464A46A2,13,50,1777566307955,1777566308050,1777566308033,background,1777566307952,-0.04443269968032837,-0.1340693235397339,-0.032448068261146545,-0.4982781410217285,-0.6429563760757446,0.1633721888065338
2026-04-30T16:25:08.033000+00:00,,8FEF31C2-62B1-4245-8456-7AE1464A46A2,13,50,1777566307955,1777566308050,1777566308033,background,1777566307955,-0.03734326362609863,-0.03590136766433716,0.014915600419044495,-0.709386944770813,-0.6724791526794434,0.1148398146033287
2026-04-30T16:25:08.062000+00:00,,8FEF31C2-62B1-4245-8456-7AE1464A46A2,14,50,1777566308012,1777566308099,1777566308062,background,1777566307966,-0.012792199850082397,0.05018472671508789,0.011098340153694153,-0.3986908197402954,-0.7745121121406555,0.03745857998728752
2026-04-30T16:25:08.062000+00:00,,8FEF31C2-62B1-4245-8456-7AE1464A46A2,14,50,1777566308012,1777566308099,1777566308062,background,1777566307971,-0.0054968297481536865,0.0035279393196105957,0.050538018345832825,-0.16146178543567657,-0.8792686462402344,-0.02764633297920227
2026-04-30T16:25:08.062000+00:00,,8FEF31C2-62B1-4245-8456-7AE1464A46A2,14,50,1777566308012,1777566308099,1777566308062,background,1777566307977,-0.031504809856414795,-0.08097797632217407,0.13068540394306183,-0.2822616994380951,-1.0342470407485962,-0.10961411893367767
2026-04-30T16:25:08.062000+00:00,,8FEF31C2-62B1-4245-8456-7AE1464A46A2,14,50,1777566308012,1777566308099,1777566308062,background,1777566307981,-0.04431062936782837,-0.029377281665802002,0.20466727018356323,-0.4636181592941284,-1.102099895477295,-0.19758130609989166
2026-04-30T16:25:08.062000+00:00,,8FEF31C2-62B1-4245-8456-7AE1464A46A2,14,50,1777566308012,1777566308099,1777566308062,background,1777566307986,-0.06588512659072876,-0.012957513332366943,0.06531776487827301,-0.7672294974327087,-1.0862897634506226,-0.2571788430213928
2026-04-30T16:25:08.062000+00:00,,8FEF31C2-62B1-4245-8456-7AE1464A46A2,14,50,1777566308012,1777566308099,1777566308062,background,1777566307990,-0.08692234754562378,0.029819726943969727,-0.056600093841552734,-0.8152382373809814,-0.9954999089241028,-0.254133939743042
2026-04-30T16:25:08.062000+00:00,,8FEF31C2-62B1-4245-8456-7AE1464A46A2,14,50,1777566308012,1777566308099,1777566308062,background,1777566307996,-0.09557968378067017,0.033345699310302734,-0.02622334659099579,-0.6072424054145813,-0.9033647775650024,-0.22707992792129517
2026-04-30T16:25:08.062000+00:00,,8FEF31C2-62B1-4245-8456-7AE1464A46A2,14,50,1777566308012,1777566308099,1777566308062,background,1777566308002,-0.10741925239562988,0.03641033172607422,-0.00899176299571991,-0.42778506875038147,-0.836085319519043,-0.1922364979982376
2026-04-30T16:25:08.062000+00:00,,8FEF31C2-62B1-4245-8456-7AE1464A46A2,14,50,1777566308012,1777566308099,1777566308062,background,1777566308006,-0.12582966685295105,-0.014524996280670166,-0.036317452788352966,-0.3129120171070099,-0.7002056837081909,-0.23432403802871704
2026-04-30T16:25:08.062000+00:00,,8FEF31C2-62B1-4245-8456-7AE1464A46A2,14,50,1777566308012,1777566308099,1777566308062,background,1777566308012,-0.11847761273384094,-0.04085618257522583,-0.03276348114013672,-0.365092933177948,-0.6283106207847595,-0.2299860566854477
2026-04-30T16:25:08.218000+00:00,,8FEF31C2-62B1-4245-8456-7AE1464A46A2,15,50,1777566308074,1777566308167,1777566308218,background,1777566308017,-0.1320163905620575,-0.05292868614196777,-0.045556604862213135,-0.4310365319252014,-0.6016241908073425,-0.2945314049720764
2026-04-30T16:25:08.218000+00:00,,8FEF31C2-62B1-4245-8456-7AE1464A46A2,15,50,1777566308074,1777566308167,1777566308218,background,1777566308021,-0.07959216833114624,0.03448253870010376,0.016077518463134766,-0.38792315125465393,-0.6428086161613464,-0.3126429617404938
2026-04-30T16:25:08.218000+00:00,,8FEF31C2-62B1-4245-8456-7AE1464A46A2,15,50,1777566308074,1777566308167,1777566308218,background,1777566308037,-0.11190518736839294,0.05956810712814331,-0.13541078567504883,-0.0062769874930381775,-0.48862388730049133,-0.33754003047943115
2026-04-30T16:25:08.218000+00:00,,8FEF31C2-62B1-4245-8456-7AE1464A46A2,15,50,1777566308074,1777566308167,1777566308218,background,1777566308044,-0.14616024494171143,-0.08786159753799438,-0.1609184592962265,0.02468731999397278,-0.23631763458251953,-0.4224543273448944
2026-04-30T16:25:08.218000+00:00,,8FEF31C2-62B1-4245-8456-7AE1464A46A2,15,50,1777566308074,1777566308167,1777566308218,background,1777566308050,-0.08330047130584717,-0.12783873081207275,-0.054110169410705566,-0.2420024275779724,-0.14077730476856232,-0.4724075496196747
2026-04-30T16:25:08.218000+00:00,,8FEF31C2-62B1-4245-8456-7AE1464A46A2,15,50,1777566308074,1777566308167,1777566308218,background,1777566308054,-0.03270065784454346,-0.061430275440216064,0.021211087703704834,-0.4490876793861389,-0.10350818932056427,-0.5666486620903015
2026-04-30T16:25:08.218000+00:00,,8FEF31C2-62B1-4245-8456-7AE1464A46A2,15,50,1777566308074,1777566308167,1777566308218,background,1777566308057,-0.030896514654159546,-0.1065254807472229,0.006872043013572693,-0.7495540380477905,-0.07184978574514389,-0.6661012768745422
2026-04-30T16:25:08.218000+00:00,,8FEF31C2-62B1-4245-8456-7AE1464A46A2,15,50,1777566308074,1777566308167,1777566308218,background,1777566308066,-0.022876858711242676,-0.0978204607963562,-0.06723099946975708,-0.7784373760223389,-0.03171895071864128,-0.7599528431892395
2026-04-30T16:25:08.218000+00:00,,8FEF31C2-62B1-4245-8456-7AE1464A46A2,15,50,1777566308074,1777566308167,1777566308218,background,1777566308070,0.0076656341552734375,-0.05937373638153076,-0.1327640414237976,-0.48499590158462524,-0.006727277301251888,-0.8310561180114746
2026-04-30T16:25:08.218000+00:00,,8FEF31C2-62B1-4245-8456-7AE1464A46A2,15,50,1777566308074,1777566308167,1777566308218,background,1777566308074,0.02489885687828064,-0.07764613628387451,-0.14400291442871094,-0.20163236558437347,0.0010092054726555943,-0.930633544921875
2026-04-30T16:25:08.246000+00:00,,8FEF31C2-62B1-4245-8456-7AE1464A46A2,16,50,1777566308145,1777566308232,1777566308246,background,1777566308085,0.03810650110244751,-0.06175297498703003,-0.09721928834915161,-0.2642456889152527,0.00036548139178194106,-0.9615739583969116
2026-04-30T16:25:08.246000+00:00,,8FEF31C2-62B1-4245-8456-7AE1464A46A2,16,50,1777566308145,1777566308232,1777566308246,background,1777566308089,0.00092315673828125,-0.07328355312347412,-0.021606318652629852,-0.19650791585445404,-0.02056160196661949,-1.0415828227996826
2026-04-30T16:25:08.246000+00:00,,8FEF31C2-62B1-4245-8456-7AE1464A46A2,16,50,1777566308145,1777566308232,1777566308246,background,1777566308101,-0.010147452354431152,0.0007259249687194824,-0.037331998348236084,0.4347616732120514,-0.11608237773180008,-1.1096397638320923
2026-04-30T16:25:08.246000+00:00,,8FEF31C2-62B1-4245-8456-7AE1464A46A2,16,50,1777566308145,1777566308232,1777566308246,background,1777566308105,-0.015674680471420288,0.17104840278625488,-0.12884832918643951,1.0759241580963135,-0.22612248361110687,-1.0168184041976929
2026-04-30T16:25:08.246000+00:00,,8FEF31C2-62B1-4245-8456-7AE1464A46A2,16,50,1777566308145,1777566308232,1777566308246,background,1777566308113,-0.04160258173942566,0.16736555099487305,-0.14933347702026367,1.257678747177124,-0.2550891935825348,-0.8497971892356873
2026-04-30T16:25:08.246000+00:00,,8FEF31C2-62B1-4245-8456-7AE1464A46A2,16,50,1777566308145,1777566308232,1777566308246,background,1777566308117,-0.002736702561378479,0.12734466791152954,-0.10365335643291473,1.0703802108764648,-0.23797498643398285,-0.6337000727653503
2026-04-30T16:25:08.246000+00:00,,8FEF31C2-62B1-4245-8456-7AE1464A46A2,16,50,1777566308145,1777566308232,1777566308246,background,1777566308123,0.03949365019798279,0.07443606853485107,-0.018027186393737793,0.7903109788894653,-0.20147432386875153,-0.5509483218193054
2026-04-30T16:25:08.246000+00:00,,8FEF31C2-62B1-4245-8456-7AE1464A46A2,16,50,1777566308145,1777566308232,1777566308246,background,1777566308131,0.08812583982944489,0.16043329238891602,0.03170377016067505,0.7171134352684021,-0.21726663410663605,-0.4747776985168457
2026-04-30T16:25:08.246000+00:00,,8FEF31C2-62B1-4245-8456-7AE1464A46A2,16,50,1777566308145,1777566308232,1777566308246,background,1777566308137,0.08205708861351013,0.15598517656326294,-0.05058763921260834,0.7357571721076965,-0.19958457350730896,-0.36409270763397217
2026-04-30T16:25:08.246000+00:00,,8FEF31C2-62B1-4245-8456-7AE1464A46A2,16,50,1777566308145,1777566308232,1777566308246,background,1777566308145,0.04940946400165558,0.14307796955108643,-0.14468026161193848,0.6969908475875854,-0.028511669486761093,-0.20305128395557404
2026-04-30T16:25:08.289000+00:00,,8FEF31C2-62B1-4245-8456-7AE1464A46A2,17,50,1777566308205,1777566308337,1777566308289,background,1777566308154,0.03966069221496582,0.08163505792617798,-0.11329102516174316,0.483957976102829,0.09589451551437378,-0.10884222388267517
2026-04-30T16:25:08.289000+00:00,,8FEF31C2-62B1-4245-8456-7AE1464A46A2,17,50,1777566308205,1777566308337,1777566308289,background,1777566308161,0.07208046317100525,0.08805638551712036,-0.03820258378982544,0.25903084874153137,0.11825277656316757,-0.019876189529895782
2026-04-30T16:25:08.289000+00:00,,8FEF31C2-62B1-4245-8456-7AE1464A46A2,17,50,1777566308205,1777566308337,1777566308289,background,1777566308167,0.0775717943906784,0.04900789260864258,0.00624491274356842,0.25695809721946716,0.07809919863939285,0.021620973944664
2026-04-30T16:25:08.289000+00:00,,8FEF31C2-62B1-4245-8456-7AE1464A46A2,17,50,1777566308205,1777566308337,1777566308289,background,1777566308170,0.08251447975635529,0.07183289527893066,0.04045015573501587,0.3429590165615082,-0.023277416825294495,0.05497003346681595
2026-04-30T16:25:08.289000+00:00,,8FEF31C2-62B1-4245-8456-7AE1464A46A2,17,50,1777566308205,1777566308337,1777566308289,background,1777566308179,0.07194569706916809,0.07672983407974243,-0.0006195008754730225,0.44986844062805176,0.0034383507445454597,0.12343303859233856
2026-04-30T16:25:08.289000+00:00,,8FEF31C2-62B1-4245-8456-7AE1464A46A2,17,50,1777566308205,1777566308337,1777566308289,background,1777566308184,0.07996977865695953,0.027377426624298096,-0.00592803955078125,0.42434683442115784,0.010125852189958096,0.16273729503154755
2026-04-30T16:25:08.289000+00:00,,8FEF31C2-62B1-4245-8456-7AE1464A46A2,17,50,1777566308205,1777566308337,1777566308289,background,1777566308187,0.06740836799144745,-0.018764197826385498,0.002449601888656616,0.2852643132209778,0.03752327710390091,0.20052094757556915
2026-04-30T16:25:08.289000+00:00,,8FEF31C2-62B1-4245-8456-7AE1464A46A2,17,50,1777566308205,1777566308337,1777566308289,background,1777566308194,0.05890163779258728,0.01808565855026245,0.07889121770858765,0.1833754926919937,0.007586376741528511,0.19159413874149323
2026-04-30T16:25:08.289000+00:00,,8FEF31C2-62B1-4245-8456-7AE1464A46A2,17,50,1777566308205,1777566308337,1777566308289,background,1777566308201,0.03196628391742706,-0.04265409708023071,0.03214612603187561,0.3995669186115265,-0.06729395687580109,0.1884033977985382
2026-04-30T16:25:08.289000+00:00,,8FEF31C2-62B1-4245-8456-7AE1464A46A2,17,50,1777566308205,1777566308337,1777566308289,background,1777566308205,-0.006192535161972046,-0.06372493505477905,0.05552324652671814,0.6737127304077148,-0.15568916499614716,0.13416732847690582
2026-04-30T16:25:08.318000+00:00,,8FEF31C2-62B1-4245-8456-7AE1464A46A2,18,50,1777566308263,1777566308359,1777566308318,background,1777566308210,-0.006603211164474487,-0.03625941276550293,0.08805939555168152,0.6666657328605652,-0.19217555224895477,0.10020042210817337
2026-04-30T16:25:08.318000+00:00,,8FEF31C2-62B1-4245-8456-7AE1464A46A2,18,50,1777566308263,1777566308359,1777566308318,background,1777566308215,0.013158917427062988,-0.06910943984985352,0.11505666375160217,0.3835267126560211,-0.2627304494380951,0.0629688948392868
2026-04-30T16:25:08.318000+00:00,,8FEF31C2-62B1-4245-8456-7AE1464A46A2,18,50,1777566308263,1777566308359,1777566308318,background,1777566308219,-0.004968047142028809,-0.08051347732543945,0.10672447085380554,0.03780631721019745,-0.28902748227119446,-0.028454657644033432
2026-04-30T16:25:08.318000+00:00,,8FEF31C2-62B1-4245-8456-7AE1464A46A2,18,50,1777566308263,1777566308359,1777566308318,background,1777566308229,-0.012337476015090942,-0.10170024633407593,0.028325527906417847,-0.19197121262550354,-0.3159506022930145,-0.06694936752319336
2026-04-30T16:25:08.318000+00:00,,8FEF31C2-62B1-4245-8456-7AE1464A46A2,18,50,1777566308263,1777566308359,1777566308318,background,1777566308233,-0.02047938108444214,-0.08196765184402466,-0.03276267647743225,-0.1153068020939827,-0.33149001002311707,-0.09875225275754929
2026-04-30T16:25:08.318000+00:00,,8FEF31C2-62B1-4245-8456-7AE1464A46A2,18,50,1777566308263,1777566308359,1777566308318,background,1777566308237,-0.03932341933250427,-0.07906830310821533,0.023167908191680908,-0.3259061276912689,-0.2543404698371887,-0.08225535601377487
2026-04-30T16:25:08.318000+00:00,,8FEF31C2-62B1-4245-8456-7AE1464A46A2,18,50,1777566308263,1777566308359,1777566308318,background,1777566308246,-0.04824657738208771,-0.1475648283958435,0.03943204879760742,-0.20260921120643616,-0.3199728727340698,-0.2496461123228073
2026-04-30T16:25:08.318000+00:00,,8FEF31C2-62B1-4245-8456-7AE1464A46A2,18,50,1777566308263,1777566308359,1777566308318,background,1777566308254,-0.0706249475479126,-0.09637337923049927,0.01721590757369995,0.17484433948993683,-0.28049805760383606,-0.29710593819618225
2026-04-30T16:25:08.318000+00:00,,8FEF31C2-62B1-4245-8456-7AE1464A46A2,18,50,1777566308263,1777566308359,1777566308318,background,1777566308257,-0.08499263226985931,-0.0203627347946167,-0.023096531629562378,0.3844231069087982,-0.18922483921051025,-0.34175094962120056
2026-04-30T16:25:08.318000+00:00,,8FEF31C2-62B1-4245-8456-7AE1464A46A2,18,50,1777566308263,1777566308359,1777566308318,background,1777566308263,-0.06525744497776031,0.040568768978118896,-0.009978890419006348,0.19087788462638855,-0.08893365412950516,-0.3139767348766327
2026-04-30T16:25:08.354000+00:00,,8FEF31C2-62B1-4245-8456-7AE1464A46A2,19,50,1777566308315,1777566308397,1777566308354,background,1777566308268,-0.04777836054563522,0.0392419695854187,-0.036776840686798096,-0.07912642508745193,-0.02238529548048973,-0.3095434308052063
2026-04-30T16:25:08.354000+00:00,,8FEF31C2-62B1-4245-8456-7AE1464A46A2,19,50,1777566308315,1777566308397,1777566308354,background,1777566308278,-0.026189088821411133,0.027911841869354248,-0.06537935137748718,-0.19280186295509338,-0.001887819147668779,-0.31437161564826965
2026-04-30T16:25:08.354000+00:00,,8FEF31C2-62B1-4245-8456-7AE1464A46A2,19,50,1777566308315,1777566308397,1777566308354,background,1777566308282,0.020680949091911316,0.10580319166183472,-0.04529580473899841,-0.027666430920362473,0.001767635578289628,-0.21184568107128143
2026-04-30T16:25:08.354000+00:00,,8FEF31C2-62B1-4245-8456-7AE1464A46A2,19,50,1777566308315,1777566308397,1777566308354,background,1777566308287,0.04847230762243271,0.1678866147994995,-0.11102473735809326,0.36584386229515076,0.016359854489564896,-0.12914606928825378
2026-04-30T16:25:08.354000+00:00,,8FEF31C2-62B1-4245-8456-7AE1464A46A2,19,50,1777566308315,1777566308397,1777566308354,background,1777566308290,0.07753275334835052,0.14609944820404053,-0.06080940365791321,0.5309363603591919,-0.04471217095851898,-0.006633194629102945
2026-04-30T16:25:08.354000+00:00,,8FEF31C2-62B1-4245-8456-7AE1464A46A2,19,50,1777566308315,1777566308397,1777566308354,background,1777566308296,0.12387382239103317,0.13017749786376953,0.042003363370895386,0.5820427536964417,-0.12487632036209106,0.13348615169525146
2026-04-30T16:25:08.354000+00:00,,8FEF31C2-62B1-4245-8456-7AE1464A46A2,19,50,1777566308315,1777566308397,1777566308354,background,1777566308300,0.06482066959142685,0.06565201282501221,0.0037412643432617188,0.6804769039154053,-0.10361509770154953,0.1563696265220642
2026-04-30T16:25:08.354000+00:00,,8FEF31C2-62B1-4245-8456-7AE1464A46A2,19,50,1777566308315,1777566308397,1777566308354,background,1777566308305,0.002487681806087494,0.02204883098602295,-0.11499089002609253,0.7626335620880127,0.043815527111291885,0.18495753407478333
2026-04-30T16:25:08.354000+00:00,,8FEF31C2-62B1-4245-8456-7AE1464A46A2,19,50,1777566308315,1777566308397,1777566308354,background,1777566308311,0.026215381920337677,-0.007881581783294678,-0.04343673586845398,0.6271705031394958,0.07456564158201218,0.25417855381965637
2026-04-30T16:25:08.354000+00:00,,8FEF31C2-62B1-4245-8456-7AE1464A46A2,19,50,1777566308315,1777566308397,1777566308354,background,1777566308315,0.037752553820610046,-0.07202351093292236,0.09934651851654053,0.4103279411792755,0.017034510150551796,0.213306725025177
2026-04-30T16:25:08.743000+00:00,,8FEF31C2-62B1-4245-8456-7AE1464A46A2,20,50,1777566308370,1777566308673,1777566308743,background,1777566308319,0.006880335509777069,-0.1364876627922058,0.116069495677948,0.3032419979572296,-0.053284887224435806,0.04999881982803345
2026-04-30T16:25:08.743000+00:00,,8FEF31C2-62B1-4245-8456-7AE1464A46A2,20,50,1777566308370,1777566308673,1777566308743,background,1777566308324,-0.05152444541454315,-0.15873652696609497,0.055016666650772095,0.15057280659675598,-0.009826588444411755,-0.06677525490522385
2026-04-30T16:25:08.743000+00:00,,8FEF31C2-62B1-4245-8456-7AE1464A46A2,20,50,1777566308370,1777566308673,1777566308743,background,1777566308331,-0.08736167103052139,-0.18881595134735107,0.007010042667388916,-0.09515652060508728,-0.012521060183644295,-0.18099215626716614
2026-04-30T16:25:08.743000+00:00,,8FEF31C2-62B1-4245-8456-7AE1464A46A2,20,50,1777566308370,1777566308673,1777566308743,background,1777566308336,-0.08909140527248383,-0.10602158308029175,0.06173408031463623,-0.3784864842891693,-0.028063267469406128,-0.29191604256629944
2026-04-30T16:25:08.743000+00:00,,8FEF31C2-62B1-4245-8456-7AE1464A46A2,20,50,1777566308370,1777566308673,1777566308743,background,1777566308339,-0.08285989612340927,-0.06739938259124756,0.0033140182495117188,-0.36345934867858887,-0.05714631825685501,-0.3803519010543823
2026-04-30T16:25:08.743000+00:00,,8FEF31C2-62B1-4245-8456-7AE1464A46A2,20,50,1777566308370,1777566308673,1777566308743,background,1777566308349,-0.09079544246196747,-0.07251012325286865,0.05388230085372925,-0.3171994388103485,-0.1489577740430832,-0.35617882013320923
2026-04-30T16:25:08.743000+00:00,,8FEF31C2-62B1-4245-8456-7AE1464A46A2,20,50,1777566308370,1777566308673,1777566308743,background,1777566308355,-0.08957278728485107,0.06289887428283691,0.013099968433380127,0.15804484486579895,-0.13764725625514984,-0.3001410961151123
2026-04-30T16:25:08.743000+00:00,,8FEF31C2-62B1-4245-8456-7AE1464A46A2,20,50,1777566308370,1777566308673,1777566308743,background,1777566308359,-0.05034402757883072,0.17662644386291504,-0.07391098141670227,0.7994828820228577,-0.015629351139068604,-0.11890237033367157
2026-04-30T16:25:08.743000+00:00,,8FEF31C2-62B1-4245-8456-7AE1464A46A2,20,50,1777566308370,1777566308673,1777566308743,background,1777566308364,-0.000390857458114624,0.14997220039367676,-0.08238869905471802,1.0071797370910645,0.12537018954753876,0.00551865017041564
2026-04-30T16:25:08.743000+00:00,,8FEF31C2-62B1-4245-8456-7AE1464A46A2,20,50,1777566308370,1777566308673,1777566308743,background,1777566308370,0.03979012370109558,0.023033320903778076,0.02064192295074463,0.5995796322822571,0.3177141845226288,0.19531984627246857
2026-04-30T16:25:08.831000+00:00,,8FEF31C2-62B1-4245-8456-7AE1464A46A2,21,50,1777566308418,1777566308700,1777566308831,background,1777566308374,0.08991239219903946,-0.03929966688156128,0.00047472119331359863,0.03024294041097164,0.27240586280822754,0.30886581540107727
2026-04-30T16:25:08.831000+00:00,,8FEF31C2-62B1-4245-8456-7AE1464A46A2,21,50,1777566308418,1777566308700,1777566308831,background,1777566308380,0.018640920519828796,0.035100698471069336,-0.03176560997962952,-0.26943910121917725,0.235122412443161,0.12510395050048828
2026-04-30T16:25:08.831000+00:00,,8FEF31C2-62B1-4245-8456-7AE1464A46A2,21,50,1777566308418,1777566308700,1777566308831,background,1777566308385,0.013910003006458282,-0.020704329013824463,-0.002150297164916992,-0.12340600788593292,0.2020581215620041,0.012512749992311
2026-04-30T16:25:08.831000+00:00,,8FEF31C2-62B1-4245-8456-7AE1464A46A2,21,50,1777566308418,1777566308700,1777566308831,background,1777566308389,0.028921648859977722,0.0400921106338501,0.020866870880126953,0.14019660651683807,0.1394062638282776,-0.1391129344701767
2026-04-30T16:25:08.831000+00:00,,8FEF31C2-62B1-4245-8456-7AE1464A46A2,21,50,1777566308418,1777566308700,1777566308831,background,1777566308395,0.016595065593719482,-0.01929408311843872,-0.013514071702957153,0.09876260906457901,0.04585421085357666,-0.19164182245731354
2026-04-30T16:25:08.831000+00:00,,8FEF31C2-62B1-4245-8456-7AE1464A46A2,21,50,1777566308418,1777566308700,1777566308831,background,1777566308398,0.0016901418566703796,0.05777943134307861,0.03135213255882263,0.29213207960128784,-0.011555587872862816,-0.17391172051429749
2026-04-30T16:25:08.831000+00:00,,8FEF31C2-62B1-4245-8456-7AE1464A46A2,21,50,1777566308418,1777566308700,1777566308831,background,1777566308403,0.005955904722213745,0.04949301481246948,0.02767479419708252,0.49323856830596924,-0.05218340456485748,-0.1667555868625641
2026-04-30T16:25:08.831000+00:00,,8FEF31C2-62B1-4245-8456-7AE1464A46A2,21,50,1777566308418,1777566308700,1777566308831,background,1777566308410,-0.0013773143291473389,-0.005077004432678223,-0.000982046127319336,0.4849100410938263,-0.06507652997970581,-0.11632730811834335
2026-04-30T16:25:08.831000+00:00,,8FEF31C2-62B1-4245-8456-7AE1464A46A2,21,50,1777566308418,1777566308700,1777566308831,background,1777566308414,-0.002434559166431427,0.01810842752456665,0.022185683250427246,0.6147193908691406,-0.06382491439580917,-0.08176304399967194
2026-04-30T16:25:08.831000+00:00,,8FEF31C2-62B1-4245-8456-7AE1464A46A2,21,50,1777566308418,1777566308700,1777566308831,background,1777566308417,-0.017036914825439453,0.015366673469543457,0.00849643349647522,0.63605135679245,-0.018519259989261627,-0.013760346919298172
2026-04-30T16:25:08.857000+00:00,,8FEF31C2-62B1-4245-8456-7AE1464A46A2,22,50,1777566308466,1777566308788,1777566308857,background,1777566308423,-0.009647868573665619,0.01808077096939087,-0.005843460559844971,0.5166999101638794,0.005718967877328396,0.055060744285583496
2026-04-30T16:25:08.857000+00:00,,8FEF31C2-62B1-4245-8456-7AE1464A46A2,22,50,1777566308466,1777566308788,1777566308857,background,1777566308428,0.002949930727481842,-0.02272474765777588,0.0021432042121887207,0.4904637932777405,-0.004949883557856083,0.020325079560279846
2026-04-30T16:25:08.857000+00:00,,8FEF31C2-62B1-4245-8456-7AE1464A46A2,22,50,1777566308466,1777566308788,1777566308857,background,1777566308432,0.006248742341995239,0.02046722173690796,0.008745074272155762,0.5032839775085449,-0.03646398335695267,-0.025531359016895294
2026-04-30T16:25:08.857000+00:00,,8FEF31C2-62B1-4245-8456-7AE1464A46A2,22,50,1777566308466,1777566308788,1777566308857,background,1777566308435,0.002984285354614258,0.005070805549621582,0.006034731864929199,0.41404545307159424,-0.03019360825419426,-0.05953241139650345
2026-04-30T16:25:08.857000+00:00,,8FEF31C2-62B1-4245-8456-7AE1464A46A2,22,50,1777566308466,1777566308788,1777566308857,background,1777566308439,-0.0042939335107803345,-0.08092993497848511,-0.026496320962905884,0.16685697436332703,0.007816169410943985,-0.06700509041547775
2026-04-30T16:25:08.857000+00:00,,8FEF31C2-62B1-4245-8456-7AE1464A46A2,22,50,1777566308466,1777566308788,1777566308857,background,1777566308447,-0.013374745845794678,0.004518032073974609,0.009044766426086426,0.27948683500289917,0.07392123341560364,-0.049861785024404526
2026-04-30T16:25:08.857000+00:00,,8FEF31C2-62B1-4245-8456-7AE1464A46A2,22,50,1777566308466,1777566308788,1777566308857,background,1777566308451,0.003552183508872986,0.020446360111236572,0.01778709888458252,0.4399886429309845,0.03560838848352432,-0.03282895311713219
2026-04-30T16:25:08.857000+00:00,,8FEF31C2-62B1-4245-8456-7AE1464A46A2,22,50,1777566308466,1777566308788,1777566308857,background,1777566308454,0.008069150149822235,0.04002177715301514,0.015893101692199707,0.5398297309875488,-0.03545472025871277,-0.01649882085621357
2026-04-30T16:25:08.857000+00:00,,8FEF31C2-62B1-4245-8456-7AE1464A46A2,22,50,1777566308466,1777566308788,1777566308857,background,1777566308458,0.005714729428291321,0.00038129091262817383,0.012650012969970703,0.5891559720039368,-0.07266459614038467,-0.03968829661607742
2026-04-30T16:25:08.857000+00:00,,8FEF31C2-62B1-4245-8456-7AE1464A46A2,22,50,1777566308466,1777566308788,1777566308857,background,1777566308465,-0.003409340977668762,0.027477562427520752,0.01173180341720581,0.6258624196052551,-0.0533071830868721,-0.06132786348462105
2026-04-30T16:25:08.884000+00:00,,8FEF31C2-62B1-4245-8456-7AE1464A46A2,23,50,1777566308523,1777566308804,1777566308884,background,1777566308472,0.004180513322353363,-0.04902195930480957,-0.020702838897705078,0.37778040766716003,-0.03768690675497055,-0.054523274302482605
2026-04-30T16:25:08.884000+00:00,,8FEF31C2-62B1-4245-8456-7AE1464A46A2,23,50,1777566308523,1777566308804,1777566308884,background,1777566308478,-0.0015232190489768982,-0.04537475109100342,-0.02189183235168457,0.09875835478305817,-0.02448200061917305,-0.023850584402680397
2026-04-30T16:25:08.884000+00:00,,8FEF31C2-62B1-4245-8456-7AE1464A46A2,23,50,1777566308523,1777566308804,1777566308884,background,1777566308482,-0.0014245733618736267,0.0031989216804504395,-0.003277301788330078,0.041813045740127563,-0.018063250929117203,-0.023238802328705788
2026-04-30T16:25:08.884000+00:00,,8FEF31C2-62B1-4245-8456-7AE1464A46A2,23,50,1777566308523,1777566308804,1777566308884,background,1777566308487,0.0005287975072860718,-0.007240772247314453,-0.0010326504707336426,0.12372256070375443,-0.014157839119434357,-0.03751595318317413
2026-04-30T16:25:08.884000+00:00,,8FEF31C2-62B1-4245-8456-7AE1464A46A2,23,50,1777566308523,1777566308804,1777566308884,background,1777566308490,0.013306662440299988,0.050235748291015625,0.020336151123046875,0.31991711258888245,-0.08357005566358566,-0.056024231016635895
2026-04-30T16:25:08.884000+00:00,,8FEF31C2-62B1-4245-8456-7AE1464A46A2,23,50,1777566308523,1777566308804,1777566308884,background,1777566308498,0.0057428255677223206,0.02302926778793335,0.014922618865966797,0.48675432801246643,-0.11907025426626205,-0.09881430864334106
2026-04-30T16:25:08.884000+00:00,,8FEF31C2-62B1-4245-8456-7AE1464A46A2,23,50,1777566308523,1777566308804,1777566308884,background,1777566308504,-0.001581437885761261,0.05460977554321289,0.025275886058807373,0.6901108622550964,-0.1635333150625229,-0.11691980808973312
2026-04-30T16:25:08.884000+00:00,,8FEF31C2-62B1-4245-8456-7AE1464A46A2,23,50,1777566308523,1777566308804,1777566308884,background,1777566308510,0.01364903524518013,0.03335082530975342,0.01640307903289795,0.8388678431510925,-0.22529815137386322,-0.12981189787387848
2026-04-30T16:25:08.884000+00:00,,8FEF31C2-62B1-4245-8456-7AE1464A46A2,23,50,1777566308523,1777566308804,1777566308884,background,1777566308517,0.0010669976472854614,0.026884138584136963,0.019332051277160645,0.865504264831543,-0.2152053564786911,-0.13669563829898834
2026-04-30T16:25:08.884000+00:00,,8FEF31C2-62B1-4245-8456-7AE1464A46A2,23,50,1777566308523,1777566308804,1777566308884,background,1777566308523,-0.006044197827577591,-0.08137941360473633,-0.033318281173706055,0.4717804193496704,-0.1472044587135315,-0.07269646972417831
2026-04-30T16:25:08.934000+00:00,,8FEF31C2-62B1-4245-8456-7AE1464A46A2,24,50,1777566308614,1777566308821,1777566308934,background,1777566308530,-0.013798870146274567,-0.07960140705108643,-0.021433889865875244,0.11838345229625702,-0.06228161230683327,-0.03181258589029312
2026-04-30T16:25:08.934000+00:00,,8FEF31C2-62B1-4245-8456-7AE1464A46A2,24,50,1777566308614,1777566308821,1777566308934,background,1777566308534,-0.000644151121377945,-0.04733145236968994,-0.007686734199523926,-0.0356987901031971,-0.0332765206694603,-0.031092090532183647
2026-04-30T16:25:08.934000+00:00,,8FEF31C2-62B1-4245-8456-7AE1464A46A2,24,50,1777566308614,1777566308821,1777566308934,background,1777566308538,0.0037869922816753387,-0.021718204021453857,-0.007739722728729248,-0.11308758705854416,-0.039795633405447006,-0.025901271030306816
2026-04-30T16:25:08.934000+00:00,,8FEF31C2-62B1-4245-8456-7AE1464A46A2,24,50,1777566308614,1777566308821,1777566308934,background,1777566308544,0.00032627955079078674,0.013059616088867188,0.00017648935317993164,-0.12340041249990463,-0.05088689923286438,-0.03616141900420189
2026-04-30T16:25:08.934000+00:00,,8FEF31C2-62B1-4245-8456-7AE1464A46A2,24,50,1777566308614,1777566308821,1777566308934,background,1777566308547,0.00399552658200264,-0.01085197925567627,-0.004856884479522705,-0.17311523854732513,-0.05001182481646538,-0.035885728895664215
2026-04-30T16:25:08.934000+00:00,,8FEF31C2-62B1-4245-8456-7AE1464A46A2,24,50,1777566308614,1777566308821,1777566308934,background,1777566308551,0.0003355257213115692,-0.01873236894607544,0.000457763671875,-0.18306054174900055,-0.04631197080016136,-0.039183519780635834
2026-04-30T16:25:08.934000+00:00,,8FEF31C2-62B1-4245-8456-7AE1464A46A2,24,50,1777566308614,1777566308821,1777566308934,background,1777566308557,-0.006941758096218109,0.008755326271057129,-0.005611419677734375,-0.17588305473327637,-0.03211728483438492,-0.019255617633461952
2026-04-30T16:25:08.934000+00:00,,8FEF31C2-62B1-4245-8456-7AE1464A46A2,24,50,1777566308614,1777566308821,1777566308934,background,1777566308573,0.001687031239271164,-0.004325747489929199,0.009839475154876709,-0.09925166517496109,-0.03747164458036423,-0.009006550535559654
2026-04-30T16:25:08.934000+00:00,,8FEF31C2-62B1-4245-8456-7AE1464A46A2,24,50,1777566308614,1777566308821,1777566308934,background,1777566308594,-0.0016640834510326385,-0.0012601613998413086,0.006111323833465576,-0.07468321174383163,-0.044306039810180664,-0.009766137227416039
2026-04-30T16:25:08.934000+00:00,,8FEF31C2-62B1-4245-8456-7AE1464A46A2,24,50,1777566308614,1777566308821,1777566308934,background,1777566308614,0.00045135989785194397,0.004877626895904541,0.012377381324768066,-0.040859729051589966,-0.034794025123119354,-0.014939061366021633
2026-04-30T16:25:08.963000+00:00,,8FEF31C2-62B1-4245-8456-7AE1464A46A2,25,50,1777566308815,1777566308903,1777566308963,background,1777566308635,-0.004253186285495758,-0.008514642715454102,0.0014297962188720703,-0.01892593689262867,-0.031913019716739655,-0.017674924805760384
2026-04-30T16:25:08.963000+00:00,,8FEF31C2-62B1-4245-8456-7AE1464A46A2,25,50,1777566308815,1777566308903,1777566308963,background,1777566308654,-0.002259455621242523,0.0243990421295166,0.01503288745880127,0.08387473970651627,-0.025384964421391487,-0.024946795776486397
2026-04-30T16:25:08.963000+00:00,,8FEF31C2-62B1-4245-8456-7AE1464A46A2,25,50,1777566308815,1777566308903,1777566308963,background,1777566308678,-0.0039096400141716,-0.007671535015106201,-0.00045746564865112305,0.06824171543121338,-0.021813133731484413,-0.03207778185606003
2026-04-30T16:25:08.963000+00:00,,8FEF31C2-62B1-4245-8456-7AE1464A46A2,25,50,1777566308815,1777566308903,1777566308963,background,1777566308694,-0.00412914901971817,0.011453211307525635,-0.001958787441253662,0.03288373351097107,-0.007697238586843014,-0.028300726786255836
2026-04-30T16:25:08.963000+00:00,,8FEF31C2-62B1-4245-8456-7AE1464A46A2,25,50,1777566308815,1777566308903,1777566308963,background,1777566308714,-0.00536176934838295,-0.019258081912994385,-0.0005072951316833496,-0.014151955023407936,0.021604914218187332,-0.0028904408682137728
2026-04-30T16:25:08.963000+00:00,,8FEF31C2-62B1-4245-8456-7AE1464A46A2,25,50,1777566308815,1777566308903,1777566308963,background,1777566308734,-0.009818512946367264,-0.016509652137756348,-0.004100143909454346,-0.05654255300760269,0.05153907462954521,0.021421290934085846
2026-04-30T16:25:08.963000+00:00,,8FEF31C2-62B1-4245-8456-7AE1464A46A2,25,50,1777566308815,1777566308903,1777566308963,background,1777566308754,-0.0032479166984558105,0.019219398498535156,0.007577776908874512,0.01987791806459427,0.054750919342041016,0.013965398073196411
2026-04-30T16:25:08.963000+00:00,,8FEF31C2-62B1-4245-8456-7AE1464A46A2,25,50,1777566308815,1777566308903,1777566308963,background,1777566308775,0.0005835965275764465,0.013545513153076172,0.009709477424621582,0.07556807994842529,0.026431627571582794,0.0015255594626069069
2026-04-30T16:25:08.963000+00:00,,8FEF31C2-62B1-4245-8456-7AE1464A46A2,25,50,1777566308815,1777566308903,1777566308963,background,1777566308794,-0.009236123412847519,-0.011197805404663086,-0.0030315518379211426,-0.0751897394657135,0.0626225396990776,0.026873046532273293
2026-04-30T16:25:08.963000+00:00,,8FEF31C2-62B1-4245-8456-7AE1464A46A2,25,50,1777566308815,1777566308903,1777566308963,background,1777566308815,-0.013172227889299393,-0.08701759576797485,-0.03855490684509277,-0.5365036129951477,0.12391968816518784,0.0955241248011589
2026-04-30T16:25:09.074000+00:00,,8FEF31C2-62B1-4245-8456-7AE1464A46A2,26,50,1777566309016,1777566309132,1777566309074,background,1777566308835,-0.015061799436807632,-0.02403569221496582,-0.012678027153015137,-0.6741458177566528,0.1826973259449005,0.18093037605285645
2026-04-30T16:25:09.074000+00:00,,8FEF31C2-62B1-4245-8456-7AE1464A46A2,26,50,1777566309016,1777566309132,1777566309074,background,1777566308855,0.0021025165915489197,-0.023393213748931885,-0.014757156372070312,-0.6964498162269592,0.1771964132785797,0.19880586862564087
2026-04-30T16:25:09.074000+00:00,,8FEF31C2-62B1-4245-8456-7AE1464A46A2,26,50,1777566309016,1777566309132,1777566309074,background,1777566308875,0.011528976261615753,0.050477027893066406,0.01500934362411499,-0.4285384714603424,0.12490013986825943,0.13491371273994446
2026-04-30T16:25:09.074000+00:00,,8FEF31C2-62B1-4245-8456-7AE1464A46A2,26,50,1777566309016,1777566309132,1777566309074,background,1777566308895,0.030611135065555573,0.07239550352096558,0.03331732749938965,-0.0009754318743944168,0.005064058117568493,-0.005059159826487303
2026-04-30T16:25:09.074000+00:00,,8FEF31C2-62B1-4245-8456-7AE1464A46A2,26,50,1777566309016,1777566309132,1777566309074,background,1777566308915,0.017847932875156403,0.051632463932037354,0.026828527450561523,0.30581939220428467,-0.06954546272754669,-0.08998725563287735
2026-04-30T16:25:09.074000+00:00,,8FEF31C2-62B1-4245-8456-7AE1464A46A2,26,50,1777566309016,1777566309132,1777566309074,background,1777566308935,-0.000811353325843811,0.020323216915130615,0.01391226053237915,0.39832803606987,-0.06395411491394043,-0.10633160918951035
2026-04-30T16:25:09.074000+00:00,,8FEF31C2-62B1-4245-8456-7AE1464A46A2,26,50,1777566309016,1777566309132,1777566309074,background,1777566308955,-0.0041834451258182526,-0.013567924499511719,-0.00010204315185546875,0.3403776288032532,-0.03781504184007645,-0.07799515128135681
2026-04-30T16:25:09.074000+00:00,,8FEF31C2-62B1-4245-8456-7AE1464A46A2,26,50,1777566309016,1777566309132,1777566309074,background,1777566308976,-0.007987204939126968,-0.019902825355529785,-0.0047991275787353516,0.2893624007701874,-0.0050448826514184475,-0.02698320709168911
2026-04-30T16:25:09.074000+00:00,,8FEF31C2-62B1-4245-8456-7AE1464A46A2,26,50,1777566309016,1777566309132,1777566309074,background,1777566308996,-0.008780073374509811,0.025951266288757324,0.012090504169464111,0.3950195908546448,0.01353313960134983,-0.013822929933667183
2026-04-30T16:25:09.074000+00:00,,8FEF31C2-62B1-4245-8456-7AE1464A46A2,26,50,1777566309016,1777566309132,1777566309074,background,1777566309015,0.007218163460493088,0.05396157503128052,0.031377553939819336,0.6584160923957825,-0.04400335252285004,-0.034511324018239975
2026-04-30T16:25:09.257000+00:00,,8FEF31C2-62B1-4245-8456-7AE1464A46A2,27,50,1777566309217,1777566309312,1777566309257,background,1777566309036,0.00768589973449707,0.08199608325958252,0.01465529203414917,0.7605557441711426,-0.07225389778614044,-0.03577211871743202
2026-04-30T16:25:09.257000+00:00,,8FEF31C2-62B1-4245-8456-7AE1464A46A2,27,50,1777566309217,1777566309312,1777566309257,background,1777566309062,-0.007228288799524307,-0.052542030811309814,0.005508720874786377,0.646136999130249,-0.054621607065200806,-0.03440985828638077
2026-04-30T16:25:09.257000+00:00,,8FEF31C2-62B1-4245-8456-7AE1464A46A2,27,50,1777566309217,1777566309312,1777566309257,background,1777566309086,-0.003810413181781769,-0.02274024486541748,-0.014499545097351074,0.3861411213874817,-0.02565215714275837,-0.03498142212629318
2026-04-30T16:25:09.257000+00:00,,8FEF31C2-62B1-4245-8456-7AE1464A46A2,27,50,1777566309217,1777566309312,1777566309257,background,1777566309100,0.004076827317476273,-0.026709258556365967,0.00035381317138671875,0.22480550408363342,-0.04759690910577774,-0.056952930986881256
2026-04-30T16:25:09.257000+00:00,,8FEF31C2-62B1-4245-8456-7AE1464A46A2,27,50,1777566309217,1777566309312,1777566309257,background,1777566309117,-0.004972446709871292,-0.016955077648162842,0.003938496112823486,0.1958225816488266,-0.041500210762023926,-0.056125540286302567
2026-04-30T16:25:09.257000+00:00,,8FEF31C2-62B1-4245-8456-7AE1464A46A2,27,50,1777566309217,1777566309312,1777566309257,background,1777566309138,-0.0005151815712451935,0.048355817794799805,0.009473264217376709,0.2632562220096588,-0.02647845819592476,-0.04094328358769417
2026-04-30T16:25:09.257000+00:00,,8FEF31C2-62B1-4245-8456-7AE1464A46A2,27,50,1777566309217,1777566309312,1777566309257,background,1777566309156,-0.0030257441103458405,-0.02136516571044922,0.004607677459716797,0.2813563942909241,-0.004730211105197668,-0.04461551830172539
2026-04-30T16:25:09.257000+00:00,,8FEF31C2-62B1-4245-8456-7AE1464A46A2,27,50,1777566309217,1777566309312,1777566309257,background,1777566309176,-0.005061648786067963,-0.00980144739151001,-0.0029354095458984375,0.2270958125591278,0.031901001930236816,-0.014122908003628254
2026-04-30T16:25:09.257000+00:00,,8FEF31C2-62B1-4245-8456-7AE1464A46A2,27,50,1777566309217,1777566309312,1777566309257,background,1777566309196,0.008232362568378448,0.012366950511932373,-0.0016367435455322266,0.2408505231142044,-0.0025595822371542454,-0.006970723159611225
2026-04-30T16:25:09.257000+00:00,,8FEF31C2-62B1-4245-8456-7AE1464A46A2,27,50,1777566309217,1777566309312,1777566309257,background,1777566309217,0.0056291259825229645,0.02832651138305664,0.015186965465545654,0.35474058985710144,-0.01798742637038231,-0.007170407101511955
2026-04-30T16:25:09.436000+00:00,,8FEF31C2-62B1-4245-8456-7AE1464A46A2,28,50,1777566309417,1777566309493,1777566309436,background,1777566309236,0.003256000578403473,-0.01860964298248291,-0.0014972686767578125,0.3190595507621765,-0.025520559400320053,0.004035109654068947
2026-04-30T16:25:09.436000+00:00,,8FEF31C2-62B1-4245-8456-7AE1464A46A2,28,50,1777566309417,1777566309493,1777566309436,background,1777566309257,-0.004233986139297485,-0.034322142601013184,-0.0031151771545410156,0.1826804131269455,-0.000747225247323513,0.005028574727475643
2026-04-30T16:25:09.436000+00:00,,8FEF31C2-62B1-4245-8456-7AE1464A46A2,28,50,1777566309417,1777566309493,1777566309436,background,1777566309277,-0.0020391345024108887,-0.02249830961227417,-0.007463216781616211,0.051081910729408264,0.0158428605645895,-0.004360985476523638
2026-04-30T16:25:09.436000+00:00,,8FEF31C2-62B1-4245-8456-7AE1464A46A2,28,50,1777566309417,1777566309493,1777566309436,background,1777566309297,0.003443371504545212,-0.0005600452423095703,-0.014086604118347168,-0.017402343451976776,0.006009024102240801,0.01354866661131382
2026-04-30T16:25:09.436000+00:00,,8FEF31C2-62B1-4245-8456-7AE1464A46A2,28,50,1777566309417,1777566309493,1777566309436,background,1777566309318,-0.00419607013463974,0.003003358840942383,0.007199287414550781,0.07713428139686584,0.015811968594789505,0.006958621088415384
2026-04-30T16:25:09.436000+00:00,,8FEF31C2-62B1-4245-8456-7AE1464A46A2,28,50,1777566309417,1777566309493,1777566309436,background,1777566309337,-0.004412591457366943,0.027386903762817383,0.011803627014160156,0.20672211050987244,0.01488845981657505,0.013770188204944134
2026-04-30T16:25:09.436000+00:00,,8FEF31C2-62B1-4245-8456-7AE1464A46A2,28,50,1777566309417,1777566309493,1777566309436,background,1777566309358,-0.0008945539593696594,0.014624714851379395,0.010062336921691895,0.2900066077709198,0.004229043610394001,0.009723887778818607
2026-04-30T16:25:09.436000+00:00,,8FEF31C2-62B1-4245-8456-7AE1464A46A2,28,50,1777566309417,1777566309493,1777566309436,background,1777566309377,-0.0006770230829715729,0.00861513614654541,-0.0005176663398742676,0.23829999566078186,0.013424329459667206,0.0036199225578457117
2026-04-30T16:25:09.436000+00:00,,8FEF31C2-62B1-4245-8456-7AE1464A46A2,28,50,1777566309417,1777566309493,1777566309436,background,1777566309397,0.0034496858716011047,-0.03201556205749512,-0.007927000522613525,0.147934690117836,0.018803421407938004,-0.012709355913102627
2026-04-30T16:25:09.436000+00:00,,8FEF31C2-62B1-4245-8456-7AE1464A46A2,28,50,1777566309417,1777566309493,1777566309436,background,1777566309417,0.0025995709002017975,-0.017266452312469482,-0.0038114190101623535,0.08542603254318237,0.016420576721429825,-0.006978339981287718
2026-04-30T16:25:09.778000+00:00,,8FEF31C2-62B1-4245-8456-7AE1464A46A2,29,50,1777566309619,1777566309727,1777566309778,background,1777566309437,-0.0034478791058063507,-0.04017770290374756,-0.00872194766998291,-0.14566044509410858,0.016831692308187485,0.018076466396450996
2026-04-30T16:25:09.778000+00:00,,8FEF31C2-62B1-4245-8456-7AE1464A46A2,29,50,1777566309619,1777566309727,1777566309778,background,1777566309458,-0.020707186311483383,-0.14708197116851807,-0.04580819606781006,-0.8839483261108398,0.08523830026388168,0.07368715852499008
2026-04-30T16:25:09.778000+00:00,,8FEF31C2-62B1-4245-8456-7AE1464A46A2,29,50,1777566309619,1777566309727,1777566309778,background,1777566309478,-0.014994505792856216,-0.1366063952445984,-0.06847131252288818,-1.6426045894622803,0.13930529356002808,0.21541434526443481
2026-04-30T16:25:09.778000+00:00,,8FEF31C2-62B1-4245-8456-7AE1464A46A2,29,50,1777566309619,1777566309727,1777566309778,background,1777566309500,-0.023926474153995514,-0.047819316387176514,-0.054546236991882324,-2.006770610809326,0.24999213218688965,0.4160383343696594
2026-04-30T16:25:09.778000+00:00,,8FEF31C2-62B1-4245-8456-7AE1464A46A2,29,50,1777566309619,1777566309727,1777566309778,background,1777566309518,-0.017863839864730835,-0.07656985521316528,-0.026183724403381348,-2.019242763519287,0.30765026807785034,0.4669739305973053
2026-04-30T16:25:09.778000+00:00,,8FEF31C2-62B1-4245-8456-7AE1464A46A2,29,50,1777566309619,1777566309727,1777566309778,background,1777566309538,-0.0033341199159622192,0.08958327770233154,0.052557945251464844,-1.310562014579773,0.300741583108902,0.4472568929195404
2026-04-30T16:25:09.778000+00:00,,8FEF31C2-62B1-4245-8456-7AE1464A46A2,29,50,1777566309619,1777566309727,1777566309778,background,1777566309558,0.011051669716835022,0.10268384218215942,0.0009412169456481934,-0.8463807702064514,0.17975547909736633,0.4479288160800934
2026-04-30T16:25:09.778000+00:00,,8FEF31C2-62B1-4245-8456-7AE1464A46A2,29,50,1777566309619,1777566309727,1777566309778,background,1777566309578,0.05597705394029617,0.0943899154663086,0.012167870998382568,-0.5441204309463501,-0.08813144266605377,0.4683135151863098
2026-04-30T16:25:09.778000+00:00,,8FEF31C2-62B1-4245-8456-7AE1464A46A2,29,50,1777566309619,1777566309727,1777566309778,background,1777566309598,-0.01358851045370102,0.018955588340759277,-0.017348885536193848,-0.5779186487197876,0.0562952496111393,0.4464067816734314
2026-04-30T16:25:09.778000+00:00,,8FEF31C2-62B1-4245-8456-7AE1464A46A2,29,50,1777566309619,1777566309727,1777566309778,background,1777566309619,-0.023201189935207367,-0.09180784225463867,-0.036333680152893066,-0.8430289030075073,0.19150424003601074,0.31840357184410095
2026-04-30T16:25:09.885000+00:00,,8FEF31C2-62B1-4245-8456-7AE1464A46A2,30,50,1777566309819,1777566309942,1777566309885,background,1777566309639,-0.07456023246049881,-0.010899722576141357,-0.07315528392791748,-0.44411876797676086,-0.23005251586437225,-0.588097095489502
2026-04-30T16:25:09.885000+00:00,,8FEF31C2-62B1-4245-8456-7AE1464A46A2,30,50,1777566309819,1777566309942,1777566309885,background,1777566309659,-0.08700739592313766,0.03483837842941284,0.027024537324905396,-0.45396047830581665,0.6124247908592224,-0.2276972532272339
2026-04-30T16:25:09.885000+00:00,,8FEF31C2-62B1-4245-8456-7AE1464A46A2,30,50,1777566309819,1777566309942,1777566309885,background,1777566309679,0.16390971839427948,-0.06547003984451294,0.045577287673950195,-0.6670287847518921,0.31116682291030884,-0.09092298895120621
2026-04-30T16:25:09.885000+00:00,,8FEF31C2-62B1-4245-8456-7AE1464A46A2,30,50,1777566309819,1777566309942,1777566309885,background,1777566309699,-0.0413287878036499,0.08460879325866699,-0.05899631977081299,-0.19697770476341248,0.30422350764274597,-0.1624743491411209
2026-04-30T16:25:09.885000+00:00,,8FEF31C2-62B1-4245-8456-7AE1464A46A2,30,50,1777566309819,1777566309942,1777566309885,background,1777566309719,-0.1528475284576416,0.19390201568603516,-0.2065643072128296,0.7059164643287659,0.48992037773132324,-0.08553802222013474
2026-04-30T16:25:09.885000+00:00,,8FEF31C2-62B1-4245-8456-7AE1464A46A2,30,50,1777566309819,1777566309942,1777566309885,background,1777566309739,0.014447785913944244,-0.005385398864746094,0.05486467480659485,0.22835975885391235,0.4070185720920563,-0.02999476157128811
2026-04-30T16:25:09.885000+00:00,,8FEF31C2-62B1-4245-8456-7AE1464A46A2,30,50,1777566309819,1777566309942,1777566309885,background,1777566309759,0.023383840918540955,-0.088589608669281,0.14710921049118042,-0.24208950996398926,0.3008332848548889,0.013809177093207836
2026-04-30T16:25:09.885000+00:00,,8FEF31C2-62B1-4245-8456-7AE1464A46A2,30,50,1777566309819,1777566309942,1777566309885,background,1777566309779,0.03687506169080734,-0.14300304651260376,0.1779235303401947,-0.2857232689857483,0.09722001105546951,-0.10154595971107483
2026-04-30T16:25:09.885000+00:00,,8FEF31C2-62B1-4245-8456-7AE1464A46A2,30,50,1777566309819,1777566309942,1777566309885,background,1777566309799,0.07367835193872452,-0.1745537519454956,0.1988900899887085,-0.13816124200820923,-0.11060311645269394,-0.21733605861663818
2026-04-30T16:25:09.885000+00:00,,8FEF31C2-62B1-4245-8456-7AE1464A46A2,30,50,1777566309819,1777566309942,1777566309885,background,1777566309819,0.03859332203865051,0.015865981578826904,-0.04507911205291748,1.2072376012802124,0.25275400280952454,-0.22615383565425873
2026-04-30T16:25:10.059000+00:00,,8FEF31C2-62B1-4245-8456-7AE1464A46A2,31,50,1777566310020,1777566310105,1777566310059,background,1777566309839,0.004595912992954254,0.27192801237106323,-0.011866867542266846,0.9719401597976685,0.2920985221862793,-0.0593019463121891
2026-04-30T16:25:10.059000+00:00,,8FEF31C2-62B1-4245-8456-7AE1464A46A2,31,50,1777566310020,1777566310105,1777566310059,background,1777566309859,0.08590015023946762,0.07289505004882812,-0.030384302139282227,0.7145717740058899,-0.09396980702877045,-0.0976787880063057
2026-04-30T16:25:10.059000+00:00,,8FEF31C2-62B1-4245-8456-7AE1464A46A2,31,50,1777566310020,1777566310105,1777566310059,background,1777566309880,0.011323526501655579,-0.01065361499786377,0.008971810340881348,0.6604174375534058,-0.13836541771888733,-0.18410274386405945
2026-04-30T16:25:10.059000+00:00,,8FEF31C2-62B1-4245-8456-7AE1464A46A2,31,50,1777566310020,1777566310105,1777566310059,background,1777566309900,-0.0014018788933753967,-0.10106945037841797,-0.031047403812408447,0.391571044921875,-0.11891993880271912,-0.15294022858142853
2026-04-30T16:25:10.059000+00:00,,8FEF31C2-62B1-4245-8456-7AE1464A46A2,31,50,1777566310020,1777566310105,1777566310059,background,1777566309920,0.01932540535926819,0.03162944316864014,-0.010265707969665527,0.2901802361011505,-0.17590245604515076,-0.19108085334300995
2026-04-30T16:25:10.059000+00:00,,8FEF31C2-62B1-4245-8456-7AE1464A46A2,31,50,1777566310020,1777566310105,1777566310059,background,1777566309940,0.010642044246196747,0.004394114017486572,0.008748173713684082,0.27564576268196106,-0.20008113980293274,-0.2555706799030304
2026-04-30T16:25:10.059000+00:00,,8FEF31C2-62B1-4245-8456-7AE1464A46A2,31,50,1777566310020,1777566310105,1777566310059,background,1777566309960,-0.0163450688123703,-0.052170753479003906,-0.01587587594985962,0.0880226120352745,-0.12537087500095367,-0.1874075084924698
2026-04-30T16:25:10.059000+00:00,,8FEF31C2-62B1-4245-8456-7AE1464A46A2,31,50,1777566310020,1777566310105,1777566310059,background,1777566309980,-0.006492741405963898,-0.01749807596206665,-0.0007668733596801758,0.07896307855844498,-0.10037665069103241,-0.11006855964660645
2026-04-30T16:25:10.059000+00:00,,8FEF31C2-62B1-4245-8456-7AE1464A46A2,31,50,1777566310020,1777566310105,1777566310059,background,1777566310001,-0.008000433444976807,0.06583774089813232,0.017073214054107666,0.25743696093559265,-0.08029420673847198,-0.06301801651716232
2026-04-30T16:25:10.059000+00:00,,8FEF31C2-62B1-4245-8456-7AE1464A46A2,31,50,1777566310020,1777566310105,1777566310059,background,1777566310020,0.0040307119488716125,0.01979297399520874,0.018029868602752686,0.3965817987918854,-0.09976819157600403,-0.09450600296258926
2026-04-30T16:25:10.247000+00:00,,8FEF31C2-62B1-4245-8456-7AE1464A46A2,32,50,1777566310221,1777566310301,1777566310247,background,1777566310040,0.0002786591649055481,-0.01460188627243042,-0.008920431137084961,0.30592218041419983,-0.09233531355857849,-0.07232815772294998
2026-04-30T16:25:10.247000+00:00,,8FEF31C2-62B1-4245-8456-7AE1464A46A2,32,50,1777566310221,1777566310301,1777566310247,background,1777566310060,-0.003423355519771576,-0.04729759693145752,-0.02414846420288086,0.04455956444144249,-0.06095311790704727,-0.04914209246635437
2026-04-30T16:25:10.247000+00:00,,8FEF31C2-62B1-4245-8456-7AE1464A46A2,32,50,1777566310221,1777566310301,1777566310247,background,1777566310080,-0.003257535398006439,-0.0635334849357605,-0.0216599702835083,-0.1838216781616211,-0.03207512944936752,-0.04579481482505798
2026-04-30T16:25:10.247000+00:00,,8FEF31C2-62B1-4245-8456-7AE1464A46A2,32,50,1777566310221,1777566310301,1777566310247,background,1777566310101,-0.0030495300889015198,-0.01651221513748169,-0.010550141334533691,-0.2416951060295105,-0.011927365325391293,-0.03814243897795677
2026-04-30T16:25:10.247000+00:00,,8FEF31C2-62B1-4245-8456-7AE1464A46A2,32,50,1777566310221,1777566310301,1777566310247,background,1777566310121,-0.009966552257537842,0.03125357627868652,0.01537632942199707,-0.041875459253787994,0.01716778241097927,-0.04479869082570076
2026-04-30T16:25:10.247000+00:00,,8FEF31C2-62B1-4245-8456-7AE1464A46A2,32,50,1777566310221,1777566310301,1777566310247,background,1777566310141,0.007299952208995819,0.09348011016845703,0.035021066665649414,0.31754636764526367,-0.037354275584220886,-0.06037738546729088
2026-04-30T16:25:10.247000+00:00,,8FEF31C2-62B1-4245-8456-7AE1464A46A2,32,50,1777566310221,1777566310301,1777566310247,background,1777566310161,0.004070021212100983,0.03862029314041138,0.01603013277053833,0.5014610886573792,-0.08519910275936127,-0.07352540642023087
2026-04-30T16:25:10.247000+00:00,,8FEF31C2-62B1-4245-8456-7AE1464A46A2,32,50,1777566310221,1777566310301,1777566310247,background,1777566310181,-0.0004896968603134155,0.030394792556762695,0.017200887203216553,0.669222891330719,-0.0829736515879631,-0.0736052468419075
2026-04-30T16:25:10.247000+00:00,,8FEF31C2-62B1-4245-8456-7AE1464A46A2,32,50,1777566310221,1777566310301,1777566310247,background,1777566310201,0.004223134368658066,0.01144951581954956,0.018935322761535645,0.813117504119873,-0.113211490213871,-0.08137694001197815
2026-04-30T16:25:10.247000+00:00,,8FEF31C2-62B1-4245-8456-7AE1464A46A2,32,50,1777566310221,1777566310301,1777566310247,background,1777566310221,-0.004610665142536163,0.0445173978805542,0.015370845794677734,0.8326938152313232,-0.10098012536764145,-0.05961715802550316
2026-04-30T16:25:10.489000+00:00,,8FEF31C2-62B1-4245-8456-7AE1464A46A2,33,50,1777566310422,1777566310550,1777566310489,background,1777566310243,-0.01730993390083313,-0.03650325536727905,0.010398328304290771,0.7713183760643005,-0.054230231791734695,-0.04197211563587189
2026-04-30T16:25:10.489000+00:00,,8FEF31C2-62B1-4245-8456-7AE1464A46A2,33,50,1777566310422,1777566310550,1777566310489,background,1777566310261,-0.001798383891582489,-0.010735750198364258,-0.008060276508331299,0.5882912874221802,-0.03486239165067673,-0.009379180148243904
2026-04-30T16:25:10.489000+00:00,,8FEF31C2-62B1-4245-8456-7AE1464A46A2,33,50,1777566310422,1777566310550,1777566310489,background,1777566310281,-0.005391661077737808,-0.03352057933807373,-0.0018776655197143555,0.41651156544685364,-0.01621071808040142,-0.03587411716580391
2026-04-30T16:25:10.489000+00:00,,8FEF31C2-62B1-4245-8456-7AE1464A46A2,33,50,1777566310422,1777566310550,1777566310489,background,1777566310301,-0.0035006441175937653,-0.00502777099609375,-0.007293403148651123,0.2994094491004944,-0.005767778493463993,-0.04390626400709152
2026-04-30T16:25:10.489000+00:00,,8FEF31C2-62B1-4245-8456-7AE1464A46A2,33,50,1777566310422,1777566310550,1777566310489,background,1777566310322,-0.0003545805811882019,-0.02792149782180786,-0.004759788513183594,0.22002007067203522,-0.007376023568212986,-0.025696847587823868
2026-04-30T16:25:10.489000+00:00,,8FEF31C2-62B1-4245-8456-7AE1464A46A2,33,50,1777566310422,1777566310550,1777566310489,background,1777566310342,-0.0025240853428840637,0.004785120487213135,-0.006127595901489258,0.19576506316661835,0.017443496733903885,-0.006035154685378075
2026-04-30T16:25:10.489000+00:00,,8FEF31C2-62B1-4245-8456-7AE1464A46A2,33,50,1777566310422,1777566310550,1777566310489,background,1777566310362,0.005760710686445236,-0.0029906630516052246,-0.001276552677154541,0.23245301842689514,-0.021307209506630898,-0.002738907001912594
2026-04-30T16:25:10.489000+00:00,,8FEF31C2-62B1-4245-8456-7AE1464A46A2,33,50,1777566310422,1777566310550,1777566310489,background,1777566310382,0.006753735244274139,0.022331714630126953,0.006409883499145508,0.28114333748817444,-0.036067474633455276,-0.004221595358103514
2026-04-30T16:25:10.489000+00:00,,8FEF31C2-62B1-4245-8456-7AE1464A46A2,33,50,1777566310422,1777566310550,1777566310489,background,1777566310402,-0.0006961971521377563,-0.01353919506072998,-0.0020272135734558105,0.25352850556373596,-0.03872363269329071,0.024807019159197807
2026-04-30T16:25:10.489000+00:00,,8FEF31C2-62B1-4245-8456-7AE1464A46A2,33,50,1777566310422,1777566310550,1777566310489,background,1777566310422,-0.003680732101202011,-0.0202140212059021,-0.003620743751525879,0.1550557017326355,-0.01599663868546486,0.05263194069266319
2026-04-30T16:25:10.674000+00:00,,8FEF31C2-62B1-4245-8456-7AE1464A46A2,34,50,1777566310623,1777566310719,1777566310674,background,1777566310442,-0.00385497510433197,-0.03448432683944702,-0.008427739143371582,0.019573519006371498,0.0027550975792109966,0.05827976018190384
2026-04-30T16:25:10.674000+00:00,,8FEF31C2-62B1-4245-8456-7AE1464A46A2,34,50,1777566310623,1777566310719,1777566310674,background,1777566310462,0.0005104802548885345,-0.02260720729827881,-0.010767698287963867,-0.0723944902420044,-0.004760457202792168,0.055366743355989456
2026-04-30T16:25:10.674000+00:00,,8FEF31C2-62B1-4245-8456-7AE1464A46A2,34,50,1777566310623,1777566310719,1777566310674,background,1777566310484,-0.000803973525762558,0.004431664943695068,0.002455472946166992,-0.06963305920362473,0.004171975422650576,0.046608615666627884
2026-04-30T16:25:10.674000+00:00,,8FEF31C2-62B1-4245-8456-7AE1464A46A2,34,50,1777566310623,1777566310719,1777566310674,background,1777566310502,0.0034340843558311462,-0.021684885025024414,-0.005339443683624268,-0.11945947259664536,0.0047666216269135475,0.05350151285529137
2026-04-30T16:25:10.674000+00:00,,8FEF31C2-62B1-4245-8456-7AE1464A46A2,34,50,1777566310623,1777566310719,1777566310674,background,1777566310523,-0.006975017488002777,-0.05817902088165283,-0.010380268096923828,-0.2913020849227905,0.04309449344873428,0.04898511618375778
2026-04-30T16:25:10.674000+00:00,,8FEF31C2-62B1-4245-8456-7AE1464A46A2,34,50,1777566310623,1777566310719,1777566310674,background,1777566310542,0.002853989601135254,-0.03391540050506592,-0.012274622917175293,-0.4621763527393341,0.06028435751795769,0.05626598373055458
2026-04-30T16:25:10.674000+00:00,,8FEF31C2-62B1-4245-8456-7AE1464A46A2,34,50,1777566310623,1777566310719,1777566310674,background,1777566310563,-0.0008981414139270782,-0.027753889560699463,-0.006994128227233887,-0.5508526563644409,0.05544360727071762,0.0331764854490757
2026-04-30T16:25:10.674000+00:00,,8FEF31C2-62B1-4245-8456-7AE1464A46A2,34,50,1777566310623,1777566310719,1777566310674,background,1777566310583,0.005768157541751862,0.049134016036987305,0.012388467788696289,-0.4160224199295044,0.02326337806880474,-0.005092928651720285
2026-04-30T16:25:10.674000+00:00,,8FEF31C2-62B1-4245-8456-7AE1464A46A2,34,50,1777566310623,1777566310719,1777566310674,background,1777566310603,0.002474956214427948,0.0514301061630249,0.01517719030380249,-0.21900123357772827,-0.008184786885976791,-0.0407429076731205
2026-04-30T16:25:10.674000+00:00,,8FEF31C2-62B1-4245-8456-7AE1464A46A2,34,50,1777566310623,1777566310719,1777566310674,background,1777566310623,0.0016950778663158417,0.07083916664123535,0.025306642055511475,0.02085290104150772,-0.04335125908255577,-0.06759806722402573
2026-04-30T16:25:10.857000+00:00,,8FEF31C2-62B1-4245-8456-7AE1464A46A2,35,50,1777566310824,1777566310915,1777566310857,background,1777566310643,0.002473980188369751,0.019259929656982422,0.025177836418151855,0.17409412562847137,-0.06800566613674164,-0.10094872862100601
2026-04-30T16:25:10.857000+00:00,,8FEF31C2-62B1-4245-8456-7AE1464A46A2,35,50,1777566310824,1777566310915,1777566310857,background,1777566310663,-0.002720121294260025,0.0271909236907959,0.010048151016235352,0.21429187059402466,-0.062100790441036224,-0.09605537354946136
2026-04-30T16:25:10.857000+00:00,,8FEF31C2-62B1-4245-8456-7AE1464A46A2,35,50,1777566310824,1777566310915,1777566310857,background,1777566310683,-0.00602814182639122,-0.014941215515136719,0.0016301870346069336,0.17852294445037842,-0.06478970497846603,-0.09731398522853851
2026-04-30T16:25:10.857000+00:00,,8FEF31C2-62B1-4245-8456-7AE1464A46A2,35,50,1777566310824,1777566310915,1777566310857,background,1777566310703,-0.002786342054605484,0.02966076135635376,0.01916801929473877,0.27533525228500366,-0.05189840495586395,-0.1033024787902832
2026-04-30T16:25:10.857000+00:00,,8FEF31C2-62B1-4245-8456-7AE1464A46A2,35,50,1777566310824,1777566310915,1777566310857,background,1777566310724,-0.006171956658363342,-0.014413833618164062,0.008476972579956055,0.23919616639614105,-0.014723380096256733,-0.07029680907726288
2026-04-30T16:25:10.857000+00:00,,8FEF31C2-62B1-4245-8456-7AE1464A46A2,35,50,1777566310824,1777566310915,1777566310857,background,1777566310744,-0.019940093159675598,-0.05636352300643921,-0.011614978313446045,-0.12332691252231598,0.07259546965360641,-0.02469848096370697
2026-04-30T16:25:10.857000+00:00,,8FEF31C2-62B1-4245-8456-7AE1464A46A2,35,50,1777566310824,1777566310915,1777566310857,background,1777566310765,-0.017134662717580795,-0.11314183473587036,-0.030874133110046387,-0.5864287614822388,0.1349676102399826,0.04620754346251488
2026-04-30T16:25:10.857000+00:00,,8FEF31C2-62B1-4245-8456-7AE1464A46A2,35,50,1777566310824,1777566310915,1777566310857,background,1777566310784,-0.006978943943977356,-0.07965892553329468,-0.029156088829040527,-0.9197657108306885,0.17494185268878937,0.15243661403656006
2026-04-30T16:25:10.857000+00:00,,8FEF31C2-62B1-4245-8456-7AE1464A46A2,35,50,1777566310824,1777566310915,1777566310857,background,1777566310804,-0.00018719956278800964,-0.043177008628845215,-0.02453327178955078,-1.0389912128448486,0.1935582309961319,0.24591991305351257
2026-04-30T16:25:10.857000+00:00,,8FEF31C2-62B1-4245-8456-7AE1464A46A2,35,50,1777566310824,1777566310915,1777566310857,background,1777566310824,0.006489194929599762,0.02958238124847412,0.01051342487335205,-0.8564693331718445,0.15594561398029327,0.2023179978132248
2026-04-30T16:25:11.069000+00:00,,8FEF31C2-62B1-4245-8456-7AE1464A46A2,36,50,1777566311025,1777566311123,1777566311069,background,1777566310844,0.027332715690135956,0.09820520877838135,0.037685275077819824,-0.3258427381515503,0.011506169103085995,0.08906931430101395
2026-04-30T16:25:11.069000+00:00,,8FEF31C2-62B1-4245-8456-7AE1464A46A2,36,50,1777566311025,1777566311123,1777566311069,background,1777566310864,0.021614842116832733,0.12469112873077393,0.05099910497665405,0.23420698940753937,-0.11918268352746964,-0.018222685903310776
2026-04-30T16:25:11.069000+00:00,,8FEF31C2-62B1-4245-8456-7AE1464A46A2,36,50,1777566311025,1777566311123,1777566311069,background,1777566310884,0.015421703457832336,0.10717040300369263,0.04734373092651367,0.6800656914710999,-0.1785217970609665,-0.10452332347631454
2026-04-30T16:25:11.069000+00:00,,8FEF31C2-62B1-4245-8456-7AE1464A46A2,36,50,1777566311025,1777566311123,1777566311069,background,1777566310904,-0.0015525929629802704,0.02888542413711548,0.016534745693206787,0.7929341793060303,-0.16764864325523376,-0.1677776724100113
2026-04-30T16:25:11.069000+00:00,,8FEF31C2-62B1-4245-8456-7AE1464A46A2,36,50,1777566311025,1777566311123,1777566311069,background,1777566310924,-0.008603613823652267,-0.04187697172164917,0.0006105899810791016,0.6852162480354309,-0.10546408593654633,-0.14533467590808868
2026-04-30T16:25:11.069000+00:00,,8FEF31C2-62B1-4245-8456-7AE1464A46A2,36,50,1777566311025,1777566311123,1777566311069,background,1777566310945,-0.014600884169340134,0.014293193817138672,0.00976872444152832,0.6630741953849792,-0.059665173292160034,-0.09371541440486908
2026-04-30T16:25:11.069000+00:00,,8FEF31C2-62B1-4245-8456-7AE1464A46A2,36,50,1777566311025,1777566311123,1777566311069,background,1777566310964,-0.0024425052106380463,0.021791398525238037,0.014800727367401123,0.7172191739082336,-0.057040516287088394,-0.07280465215444565
2026-04-30T16:25:11.069000+00:00,,8FEF31C2-62B1-4245-8456-7AE1464A46A2,36,50,1777566311025,1777566311123,1777566311069,background,1777566310985,-0.002503126859664917,0.015564978122711182,0.016113877296447754,0.7517979741096497,-0.055798836052417755,-0.06523408740758896
2026-04-30T16:25:11.069000+00:00,,8FEF31C2-62B1-4245-8456-7AE1464A46A2,36,50,1777566311025,1777566311123,1777566311069,background,1777566311005,-0.004329800605773926,-0.04455488920211792,-0.012767910957336426,0.5009361505508423,-0.007160687819123268,-0.0335952490568161
2026-04-30T16:25:11.069000+00:00,,8FEF31C2-62B1-4245-8456-7AE1464A46A2,36,50,1777566311025,1777566311123,1777566311069,background,1777566311025,-0.012639354914426804,-0.07359546422958374,-0.01894354820251465,0.14424221217632294,0.03199009969830513,0.011839236132800579
2026-04-30T16:25:11.397000+00:00,,8FEF31C2-62B1-4245-8456-7AE1464A46A2,37,50,1777566311226,1777566311369,1777566311397,background,1777566311045,-0.0011894404888153076,-0.06660842895507812,-0.017679214477539062,-0.14210832118988037,0.041419897228479385,0.049457721412181854
2026-04-30T16:25:11.397000+00:00,,8FEF31C2-62B1-4245-8456-7AE1464A46A2,37,50,1777566311226,1777566311369,1777566311397,background,1777566311065,-0.0015240833163261414,-0.02350592613220215,-0.009956598281860352,-0.2991272211074829,0.040952589362859726,0.083503358066082
2026-04-30T16:25:11.397000+00:00,,8FEF31C2-62B1-4245-8456-7AE1464A46A2,37,50,1777566311226,1777566311369,1777566311397,background,1777566311085,0.0029842443764209747,-0.031167447566986084,-0.008618533611297607,-0.37805429100990295,0.03295363113284111,0.08508511632680893
2026-04-30T16:25:11.397000+00:00,,8FEF31C2-62B1-4245-8456-7AE1464A46A2,37,50,1777566311226,1777566311369,1777566311397,background,1777566311105,-0.0006717555224895477,-0.01033550500869751,-0.004060029983520508,-0.43518492579460144,0.0417795367538929,0.07390133291482925
2026-04-30T16:25:11.397000+00:00,,8FEF31C2-62B1-4245-8456-7AE1464A46A2,37,50,1777566311226,1777566311369,1777566311397,background,1777566311125,-0.002950146794319153,-0.04245251417160034,-0.014853239059448242,-0.5801476836204529,0.04667066037654877,0.08370932191610336
2026-04-30T16:25:11.397000+00:00,,8FEF31C2-62B1-4245-8456-7AE1464A46A2,37,50,1777566311226,1777566311369,1777566311397,background,1777566311145,-0.00253107026219368,-0.015169382095336914,-0.0025156140327453613,-0.6454058289527893,0.04521592706441879,0.08853454887866974
2026-04-30T16:25:11.397000+00:00,,8FEF31C2-62B1-4245-8456-7AE1464A46A2,37,50,1777566311226,1777566311369,1777566311397,background,1777566311165,-0.0023478902876377106,0.0051583051681518555,-0.002405822277069092,-0.6091652512550354,0.04192262515425682,0.08055316656827927
2026-04-30T16:25:11.397000+00:00,,8FEF31C2-62B1-4245-8456-7AE1464A46A2,37,50,1777566311226,1777566311369,1777566311397,background,1777566311186,0.001858450472354889,0.061599671840667725,0.018147528171539307,-0.3331911861896515,0.014457141980528831,0.02128450945019722
2026-04-30T16:25:11.397000+00:00,,8FEF31C2-62B1-4245-8456-7AE1464A46A2,37,50,1777566311226,1777566311369,1777566311397,background,1777566311206,0.005570594221353531,0.11047792434692383,0.041383981704711914,0.08527583628892899,-0.05466463416814804,-0.09231555461883545
2026-04-30T16:25:11.397000+00:00,,8FEF31C2-62B1-4245-8456-7AE1464A46A2,37,50,1777566311226,1777566311369,1777566311397,background,1777566311226,0.007436808198690414,0.10463768243789673,0.04358786344528198,0.5083474516868591,-0.13238202035427094,-0.13985398411750793
2026-04-30T16:25:11.520000+00:00,,8FEF31C2-62B1-4245-8456-7AE1464A46A2,38,50,1777566311427,1777566311577,1777566311520,background,1777566311246,-0.006474807858467102,0.07436853647232056,0.031936585903167725,0.7654581069946289,-0.1282975822687149,-0.12860405445098877
2026-04-30T16:25:11.520000+00:00,,8FEF31C2-62B1-4245-8456-7AE1464A46A2,38,50,1777566311427,1777566311577,1777566311520,background,1777566311266,-0.011136934161186218,-0.02688807249069214,0.011835873126983643,0.7213670611381531,-0.07163699716329575,-0.10734489560127258
2026-04-30T16:25:11.520000+00:00,,8FEF31C2-62B1-4245-8456-7AE1464A46A2,38,50,1777566311427,1777566311577,1777566311520,background,1777566311286,-0.016963306814432144,-0.06327551603317261,-0.009136676788330078,0.46461915969848633,0.01727103814482689,-0.06176222860813141
2026-04-30T16:25:11.520000+00:00,,8FEF31C2-62B1-4245-8456-7AE1464A46A2,38,50,1777566311427,1777566311577,1777566311520,background,1777566311310,0.00026157498359680176,-0.08571356534957886,-0.019253432750701904,0.14392529428005219,0.067477747797966,-0.025241713970899582
2026-04-30T16:25:11.520000+00:00,,8FEF31C2-62B1-4245-8456-7AE1464A46A2,38,50,1777566311427,1777566311577,1777566311520,background,1777566311326,0.0005239397287368774,-0.07357954978942871,-0.02641761302947998,-0.19236057996749878,0.09052154421806335,0.03626367077231407
2026-04-30T16:25:11.520000+00:00,,8FEF31C2-62B1-4245-8456-7AE1464A46A2,38,50,1777566311427,1777566311577,1777566311520,background,1777566311346,0.0022714436054229736,-0.07706236839294434,-0.0218050479888916,-0.4648256301879883,0.09125125408172607,0.04772624000906944
2026-04-30T16:25:11.520000+00:00,,8FEF31C2-62B1-4245-8456-7AE1464A46A2,38,50,1777566311427,1777566311577,1777566311520,background,1777566311367,-0.007863733917474747,-0.024974167346954346,-0.011509060859680176,-0.5867363810539246,0.11001881957054138,0.08801405876874924
2026-04-30T16:25:11.520000+00:00,,8FEF31C2-62B1-4245-8456-7AE1464A46A2,38,50,1777566311427,1777566311577,1777566311520,background,1777566311387,-0.000279892235994339,0.03420865535736084,0.001958787441253662,-0.5004504919052124,0.09584345668554306,0.09888188540935516
2026-04-30T16:25:11.520000+00:00,,8FEF31C2-62B1-4245-8456-7AE1464A46A2,38,50,1777566311427,1777566311577,1777566311520,background,1777566311407,0.007382608950138092,0.04713016748428345,0.014781713485717773,-0.26485422253608704,0.03520289808511734,0.06650982797145844
2026-04-30T16:25:11.520000+00:00,,8FEF31C2-62B1-4245-8456-7AE1464A46A2,38,50,1777566311427,1777566311577,1777566311520,background,1777566311427,0.005365166813135147,0.05798673629760742,0.0162772536277771,-0.06765379756689072,0.002556311897933483,0.03544118255376816
2026-04-30T16:25:11.681000+00:00,,8FEF31C2-62B1-4245-8456-7AE1464A46A2,39,50,1777566311628,1777566311741,1777566311681,background,1777566311448,-0.0024197064340114594,0.0036762356758117676,0.0062302350997924805,-0.06593605875968933,-0.004886956885457039,-0.0005820661317557096
2026-04-30T16:25:11.681000+00:00,,8FEF31C2-62B1-4245-8456-7AE1464A46A2,39,50,1777566311628,1777566311741,1777566311681,background,1777566311468,-0.00827321782708168,-0.021715879440307617,-0.0033440589904785156,-0.1821654587984085,0.026647189632058144,-0.02597365528345108
2026-04-30T16:25:11.681000+00:00,,8FEF31C2-62B1-4245-8456-7AE1464A46A2,39,50,1777566311628,1777566311741,1777566311681,background,1777566311487,-0.004823952913284302,-0.025257408618927002,-0.0042958855628967285,-0.3600345253944397,0.01818857342004776,-0.055181022733449936
2026-04-30T16:25:11.681000+00:00,,8FEF31C2-62B1-4245-8456-7AE1464A46A2,39,50,1777566311628,1777566311741,1777566311681,background,1777566311507,0.004349369555711746,0.0027559995651245117,0.0011115074157714844,-0.34911078214645386,-0.0264557097107172,-0.014478174038231373
2026-04-30T16:25:11.681000+00:00,,8FEF31C2-62B1-4245-8456-7AE1464A46A2,39,50,1777566311628,1777566311741,1777566311681,background,1777566311527,-0.018206488341093063,-0.016418933868408203,-0.00125044584274292,-0.3530208468437195,0.08429477363824844,0.04289073497056961
2026-04-30T16:25:11.681000+00:00,,8FEF31C2-62B1-4245-8456-7AE1464A46A2,39,50,1777566311628,1777566311741,1777566311681,background,1777566311547,-0.015053872019052505,-0.0484047532081604,-0.018598437309265137,-0.41896921396255493,0.16103695333003998,0.1459108591079712
2026-04-30T16:25:11.681000+00:00,,8FEF31C2-62B1-4245-8456-7AE1464A46A2,39,50,1777566311628,1777566311741,1777566311681,background,1777566311567,-0.0008742660284042358,0.001511693000793457,-0.0026887059211730957,-0.34057533740997314,0.16146264970302582,0.1870993673801422
2026-04-30T16:25:11.681000+00:00,,8FEF31C2-62B1-4245-8456-7AE1464A46A2,39,50,1777566311628,1777566311741,1777566311681,background,1777566311589,0.011809714138507843,0.06642276048660278,0.020340800285339355,-0.060529306530952454,0.06832866370677948,0.1173577830195427
2026-04-30T16:25:11.681000+00:00,,8FEF31C2-62B1-4245-8456-7AE1464A46A2,39,50,1777566311628,1777566311741,1777566311681,background,1777566311608,0.024077579379081726,0.08947569131851196,0.033567845821380615,0.3387075662612915,-0.05310185253620148,-0.005485904403030872
2026-04-30T16:25:11.681000+00:00,,8FEF31C2-62B1-4245-8456-7AE1464A46A2,39,50,1777566311628,1777566311741,1777566311681,background,1777566311628,0.018496073782444,0.08909064531326294,0.03399175405502319,0.7075346112251282,-0.1251526176929474,-0.11005513370037079
2026-04-30T16:25:11.925000+00:00,,8FEF31C2-62B1-4245-8456-7AE1464A46A2,40,50,1777566311829,1777566311983,1777566311925,background,1777566311648,0.012701958417892456,0.05996662378311157,0.03954505920410156,1.0185385942459106,-0.18959598243236542,-0.17382405698299408
2026-04-30T16:25:11.925000+00:00,,8FEF31C2-62B1-4245-8456-7AE1464A46A2,40,50,1777566311829,1777566311983,1777566311925,background,1777566311668,-0.0014967024326324463,0.032184600830078125,0.018856287002563477,1.0655111074447632,-0.17987588047981262,-0.15512849390506744
2026-04-30T16:25:11.925000+00:00,,8FEF31C2-62B1-4245-8456-7AE1464A46A2,40,50,1777566311829,1777566311983,1777566311925,background,1777566311688,-0.016748350113630295,-0.012636423110961914,-0.0021136999130249023,0.8658744096755981,-0.11330823600292206,-0.1081010177731514
2026-04-30T16:25:11.925000+00:00,,8FEF31C2-62B1-4245-8456-7AE1464A46A2,40,50,1777566311829,1777566311983,1777566311925,background,1777566311708,-0.005591090768575668,-0.052099406719207764,-0.01131284236907959,0.5612985491752625,-0.07865127176046371,-0.08279465138912201
2026-04-30T16:25:11.925000+00:00,,8FEF31C2-62B1-4245-8456-7AE1464A46A2,40,50,1777566311829,1777566311983,1777566311925,background,1777566311728,-0.0093044713139534,-0.10545563697814941,-0.026702165603637695,0.16323161125183105,-0.011199410073459148,-0.029165294021368027
2026-04-30T16:25:11.925000+00:00,,8FEF31C2-62B1-4245-8456-7AE1464A46A2,40,50,1777566311829,1777566311983,1777566311925,background,1777566311752,-0.006684530526399612,-0.10758715867996216,-0.01819080114364624,-0.19214113056659698,0.046287473291158676,0.020173119381070137
2026-04-30T16:25:11.925000+00:00,,8FEF31C2-62B1-4245-8456-7AE1464A46A2,40,50,1777566311829,1777566311983,1777566311925,background,1777566311768,0.00039482489228248596,-0.059731245040893555,-0.0190393328666687,-0.47758084535598755,0.0562952496111393,0.0345568023622036
2026-04-30T16:25:11.925000+00:00,,8FEF31C2-62B1-4245-8456-7AE1464A46A2,40,50,1777566311829,1777566311983,1777566311925,background,1777566311788,-0.005458630621433258,-0.062499403953552246,-0.0194627046585083,-0.7175402045249939,0.06911661475896835,0.044694870710372925
2026-04-30T16:25:11.925000+00:00,,8FEF31C2-62B1-4245-8456-7AE1464A46A2,40,50,1777566311829,1777566311983,1777566311925,background,1777566311808,0.0057084523141384125,-0.01879417896270752,-0.007394611835479736,-0.8005799651145935,0.04917669668793678,0.03615022450685501
2026-04-30T16:25:11.925000+00:00,,8FEF31C2-62B1-4245-8456-7AE1464A46A2,40,50,1777566311829,1777566311983,1777566311925,background,1777566311829,-0.0009020566940307617,0.04650402069091797,0.004718005657196045,-0.6271602511405945,0.01910652592778206,-0.0021229712292551994
2026-04-30T16:25:12.071000+00:00,,8FEF31C2-62B1-4245-8456-7AE1464A46A2,41,50,1777566312030,1777566312121,1777566312071,background,1777566311849,0.008012335747480392,0.08245551586151123,0.023836612701416016,-0.22579629719257355,-0.0500074103474617,-0.04978401958942413
2026-04-30T16:25:12.071000+00:00,,8FEF31C2-62B1-4245-8456-7AE1464A46A2,41,50,1777566312030,1777566312121,1777566312071,background,1777566311869,-0.009399950504302979,0.12837117910385132,0.04412573575973511,0.26171931624412537,-0.07980696856975555,-0.06373951584100723
2026-04-30T16:25:12.071000+00:00,,8FEF31C2-62B1-4245-8456-7AE1464A46A2,41,50,1777566312030,1777566312121,1777566312071,background,1777566311889,-0.005307335406541824,0.05689263343811035,0.03020322322845459,0.5051066279411316,-0.07219215482473373,-0.07175648212432861
2026-04-30T16:25:12.071000+00:00,,8FEF31C2-62B1-4245-8456-7AE1464A46A2,41,50,1777566312030,1777566312121,1777566312071,background,1777566311909,-0.018185511231422424,-0.005775868892669678,0.008137226104736328,0.4725138247013092,-0.001550777000375092,-0.07567772269248962
2026-04-30T16:25:12.071000+00:00,,8FEF31C2-62B1-4245-8456-7AE1464A46A2,41,50,1777566312030,1777566312121,1777566312071,background,1777566311929,-0.0021233782172203064,-0.006283938884735107,0.0031908154487609863,0.4084855616092682,0.020396407693624496,-0.11044268310070038
2026-04-30T16:25:12.071000+00:00,,8FEF31C2-62B1-4245-8456-7AE1464A46A2,41,50,1777566312030,1777566312121,1777566312071,background,1777566311949,-0.011067498475313187,-0.02674466371536255,0.007280170917510986,0.37340641021728516,0.06012392416596413,-0.06486331671476364
2026-04-30T16:25:12.071000+00:00,,8FEF31C2-62B1-4245-8456-7AE1464A46A2,41,50,1777566312030,1777566312121,1777566312071,background,1777566311971,-0.012479908764362335,-0.055062711238861084,-0.007339894771575928,0.2185065895318985,0.09902083873748779,0.03003198280930519
2026-04-30T16:25:12.071000+00:00,,8FEF31C2-62B1-4245-8456-7AE1464A46A2,41,50,1777566312030,1777566312121,1777566312071,background,1777566311991,-0.005304250866174698,-0.07144039869308472,-0.025867104530334473,-0.12249600887298584,0.09231895953416824,0.09568321704864502
2026-04-30T16:25:12.071000+00:00,,8FEF31C2-62B1-4245-8456-7AE1464A46A2,41,50,1777566312030,1777566312121,1777566312071,background,1777566312010,0.00351845845580101,-0.030066609382629395,-0.023670554161071777,-0.418224573135376,0.08775611966848373,0.13562051951885223
2026-04-30T16:25:12.071000+00:00,,8FEF31C2-62B1-4245-8456-7AE1464A46A2,41,50,1777566312030,1777566312121,1777566312071,background,1777566312030,0.009368889033794403,-0.08011871576309204,-0.03104633092880249,-0.7418090105056763,0.05191861093044281,0.1564304530620575
2026-04-30T16:25:12.277000+00:00,,8FEF31C2-62B1-4245-8456-7AE1464A46A2,42,50,1777566312231,1777566312337,1777566312277,background,1777566312050,-9.611248970031738e-07,-0.05132657289505005,-0.03002011775970459,-0.9834442734718323,0.054105449467897415,0.1815050095319748
2026-04-30T16:25:12.277000+00:00,,8FEF31C2-62B1-4245-8456-7AE1464A46A2,42,50,1777566312231,1777566312337,1777566312277,background,1777566312070,0.0036089271306991577,-0.011514246463775635,-0.010681211948394775,-0.9708483815193176,0.044846776872873306,0.13528217375278473
2026-04-30T16:25:12.277000+00:00,,8FEF31C2-62B1-4245-8456-7AE1464A46A2,42,50,1777566312231,1777566312337,1777566312277,background,1777566312090,0.010691627860069275,0.07500594854354858,0.02183687686920166,-0.6373646855354309,0.0027771638706326485,0.0554019995033741
2026-04-30T16:25:12.277000+00:00,,8FEF31C2-62B1-4245-8456-7AE1464A46A2,42,50,1777566312231,1777566312337,1777566312277,background,1777566312110,0.010622777044773102,0.07237160205841064,0.03570413589477539,-0.193464457988739,-0.04434796795248985,-0.017566004768013954
2026-04-30T16:25:12.277000+00:00,,8FEF31C2-62B1-4245-8456-7AE1464A46A2,42,50,1777566312231,1777566312337,1777566312277,background,1777566312130,-0.0035705938935279846,0.07160013914108276,0.03611642122268677,0.23285970091819763,-0.05851229280233383,-0.05872121453285217
2026-04-30T16:25:12.277000+00:00,,8FEF31C2-62B1-4245-8456-7AE1464A46A2,42,50,1777566312231,1777566312337,1777566312277,background,1777566312150,-0.0008837953209877014,0.05395549535751343,0.026620864868164062,0.4984290599822998,-0.07951489090919495,-0.06873368471860886
2026-04-30T16:25:12.277000+00:00,,8FEF31C2-62B1-4245-8456-7AE1464A46A2,42,50,1777566312231,1777566312337,1777566312277,background,1777566312170,0.0006471201777458191,0.04390841722488403,0.030307888984680176,0.7753338813781738,-0.09816333651542664,-0.07411572337150574
2026-04-30T16:25:12.277000+00:00,,8FEF31C2-62B1-4245-8456-7AE1464A46A2,42,50,1777566312231,1777566312337,1777566312277,background,1777566312190,0.00875285267829895,0.08132541179656982,0.03229004144668579,1.072668433189392,-0.1404620110988617,-0.060688652098178864
2026-04-30T16:25:12.277000+00:00,,8FEF31C2-62B1-4245-8456-7AE1464A46A2,42,50,1777566312231,1777566312337,1777566312277,background,1777566312211,-0.006913468241691589,0.009162366390228271,-0.005408525466918945,0.9677368998527527,-0.11726626753807068,0.004197242669761181
2026-04-30T16:25:12.277000+00:00,,8FEF31C2-62B1-4245-8456-7AE1464A46A2,42,50,1777566312231,1777566312337,1777566312277,background,1777566312231,-0.033815648406744,-0.019855201244354248,0.0025412440299987793,0.7376496195793152,-0.016324205324053764,0.03210360184311867
2026-04-30T16:25:12.446000+00:00,,8FEF31C2-62B1-4245-8456-7AE1464A46A2,43,50,1777566312432,1777566312507,1777566312446,background,1777566312250,-0.0033021382987499237,-0.06608104705810547,-0.017993450164794922,0.3910703659057617,0.02245202846825123,-0.012668023817241192
2026-04-30T16:25:12.446000+00:00,,8FEF31C2-62B1-4245-8456-7AE1464A46A2,43,50,1777566312432,1777566312507,1777566312446,background,1777566312271,-0.0023479238152503967,-0.04950225353240967,-0.014351189136505127,0.06832294166088104,0.051433004438877106,-0.061789922416210175
2026-04-30T16:25:12.446000+00:00,,8FEF31C2-62B1-4245-8456-7AE1464A46A2,43,50,1777566312432,1777566312507,1777566312446,background,1777566312291,-0.009222257882356644,-0.08020144701004028,-0.0013526678085327148,-0.12472294270992279,0.07708586752414703,-0.06949184089899063
2026-04-30T16:25:12.446000+00:00,,8FEF31C2-62B1-4245-8456-7AE1464A46A2,43,50,1777566312432,1777566312507,1777566312446,background,1777566312311,0.005812164396047592,0.015646159648895264,-0.0020066499710083008,-0.1693551242351532,0.03582482412457466,-0.0047949207946658134
2026-04-30T16:25:12.446000+00:00,,8FEF31C2-62B1-4245-8456-7AE1464A46A2,43,50,1777566312432,1777566312507,1777566312446,background,1777566312331,-0.008506566286087036,-0.05004924535751343,-0.012766718864440918,-0.38537585735321045,0.022108137607574463,0.06313033401966095
2026-04-30T16:25:12.446000+00:00,,8FEF31C2-62B1-4245-8456-7AE1464A46A2,43,50,1777566312432,1777566312507,1777566312446,background,1777566312351,-0.01502332091331482,-0.06942236423492432,-0.04361164569854736,-0.9697465896606445,0.09985216706991196,0.20981788635253906
2026-04-30T16:25:12.446000+00:00,,8FEF31C2-62B1-4245-8456-7AE1464A46A2,43,50,1777566312432,1777566312507,1777566312446,background,1777566312371,-0.024323396384716034,-0.20328956842422485,-0.0898621678352356,-1.9795923233032227,0.22697953879833221,0.3354508578777313
2026-04-30T16:25:12.446000+00:00,,8FEF31C2-62B1-4245-8456-7AE1464A46A2,43,50,1777566312432,1777566312507,1777566312446,background,1777566312394,-0.022646792232990265,-0.1384238600730896,-0.07082098722457886,-2.6565704345703125,0.3343469202518463,0.4089086651802063
2026-04-30T16:25:12.446000+00:00,,8FEF31C2-62B1-4245-8456-7AE1464A46A2,43,50,1777566312432,1777566312507,1777566312446,background,1777566312411,0.0091065913438797,-0.13422447443008423,-0.03746223449707031,-2.8171210289001465,0.26822659373283386,0.5101743936538696
2026-04-30T16:25:12.446000+00:00,,8FEF31C2-62B1-4245-8456-7AE1464A46A2,43,50,1777566312432,1777566312507,1777566312446,background,1777566312431,-0.0072504132986068726,0.1030004620552063,0.041236817836761475,-2.3104186058044434,0.16955949366092682,0.49800682067871094
2026-04-30T16:25:12.806000+00:00,,8FEF31C2-62B1-4245-8456-7AE1464A46A2,44,50,1777566312633,1777566312737,1777566312806,background,1777566312451,0.04192977398633957,0.15426993370056152,0.031565845012664795,-1.8837720155715942,-0.04930756986141205,0.4252226650714874
2026-04-30T16:25:12.806000+00:00,,8FEF31C2-62B1-4245-8456-7AE1464A46A2,44,50,1777566312633,1777566312737,1777566312806,background,1777566312472,-0.010625019669532776,0.009270846843719482,0.0004388391971588135,-1.7763062715530396,-0.04467770457267761,0.40289705991744995
2026-04-30T16:25:12.806000+00:00,,8FEF31C2-62B1-4245-8456-7AE1464A46A2,44,50,1777566312633,1777566312737,1777566312806,background,1777566312492,-0.01099056750535965,0.02278190851211548,0.0007832646369934082,-1.1187517642974854,-0.3572497069835663,-0.27947941422462463
2026-04-30T16:25:12.806000+00:00,,8FEF31C2-62B1-4245-8456-7AE1464A46A2,44,50,1777566312633,1777566312737,1777566312806,background,1777566312512,-0.19159045815467834,0.15554922819137573,-0.05945265293121338,-0.14617815613746643,0.24748823046684265,-0.418942928314209
2026-04-30T16:25:12.806000+00:00,,8FEF31C2-62B1-4245-8456-7AE1464A46A2,44,50,1777566312633,1777566312737,1777566312806,background,1777566312532,0.07493070513010025,-0.0005674958229064941,-0.0017767846584320068,0.3629993200302124,0.17689920961856842,-0.24224375188350677
2026-04-30T16:25:12.806000+00:00,,8FEF31C2-62B1-4245-8456-7AE1464A46A2,44,50,1777566312633,1777566312737,1777566312806,background,1777566312552,0.11972308903932571,0.06855469942092896,0.09119123220443726,0.5202043652534485,0.0010396797442808747,-0.10509547591209412
