local_ts,session_id,sequence,sample_rate_hz,watch_sent_at,phone_received_at,source,ts,ax,ay,az,rx,ry,rz
2026-04-30T15:16:42.392233+00:00,S005,0,50,1777562202355,1777562202410,message,1777562202174,0.012985259294509888,-0.0325566828250885,0.024461567401885986,-0.025993967428803444,0.028026515617966652,-0.021424550563097
2026-04-30T15:16:42.392233+00:00,S005,0,50,1777562202355,1777562202410,message,1777562202193,0.010460153222084045,-0.006752669811248779,0.015031754970550537,-0.07457854598760605,0.019232872873544693,-0.00667106406763196
2026-04-30T15:16:42.392233+00:00,S005,0,50,1777562202355,1777562202410,message,1777562202213,0.01224769651889801,0.01554502546787262,-0.002633810043334961,-0.014119996689260006,0.013506771996617317,0.004740048199892044
2026-04-30T15:16:42.392233+00:00,S005,0,50,1777562202355,1777562202410,message,1777562202233,-0.0010430514812469482,0.00626431405544281,0.003034532070159912,0.012397097423672676,0.007037763483822346,0.005984010640531778
2026-04-30T15:16:42.392233+00:00,S005,0,50,1777562202355,1777562202410,message,1777562202253,0.0054354071617126465,-0.005788907408714294,0.004927456378936768,-0.013155132532119751,-0.0017969696782529354,-0.001073579303920269
2026-04-30T15:16:42.392233+00:00,S005,0,50,1777562202355,1777562202410,message,1777562202273,0.038012027740478516,-0.009836092591285706,0.006847560405731201,-0.05868479982018471,-0.1538790762424469,0.03907021880149841
2026-04-30T15:16:42.392233+00:00,S005,0,50,1777562202355,1777562202410,message,1777562202297,0.14619514346122742,-0.0015368908643722534,0.013419508934020996,-0.004039665684103966,-0.08132477849721909,0.007236921694129705
2026-04-30T15:16:42.392233+00:00,S005,0,50,1777562202355,1777562202410,message,1777562202314,0.005471184849739075,0.0022613704204559326,0.004916369915008545,-0.004292665049433708,-0.022228475660085678,-0.005184967070817947
2026-04-30T15:16:42.392233+00:00,S005,0,50,1777562202355,1777562202410,message,1777562202335,0.012280568480491638,-0.006310984492301941,0.008374571800231934,-0.03485243767499924,-0.030174700543284416,0.002232841681689024
2026-04-30T15:16:42.392233+00:00,S005,0,50,1777562202355,1777562202410,message,1777562202354,0.007723420858383179,-0.0028124451637268066,0.0050675272941589355,-0.03726952522993088,-0.03602981194853783,0.007694718893617392
2026-04-30T15:16:42.942315+00:00,S005,1,50,1777562202555,1777562202640,message,1777562202374,0.0019772201776504517,0.0091877281665802,-0.005667567253112793,0.0023290161043405533,-0.03150730952620506,0.014418029226362705
2026-04-30T15:16:42.942315+00:00,S005,1,50,1777562202555,1777562202640,message,1777562202395,-0.0020131915807724,-0.0030262917280197144,-0.007590830326080322,-0.022368604317307472,-0.029254388064146042,0.011741445399820805
2026-04-30T15:16:42.942315+00:00,S005,1,50,1777562202555,1777562202640,message,1777562202414,0.0023508220911026,-0.013364344835281372,-0.003418564796447754,-0.05714256316423416,-0.027640018612146378,0.0004621592233888805
2026-04-30T15:16:42.942315+00:00,S005,1,50,1777562202555,1777562202640,message,1777562202435,-0.00024269521236419678,-0.013738349080085754,-0.008669793605804443,-0.03703010827302933,-0.022936571389436722,-0.002398927928879857
2026-04-30T15:16:42.942315+00:00,S005,1,50,1777562202555,1777562202640,message,1777562202455,-0.002469867467880249,-0.005244016647338867,-0.009958922863006592,0.008925400674343109,-0.020560119301080704,-0.0015912979142740369
2026-04-30T15:16:42.942315+00:00,S005,1,50,1777562202555,1777562202640,message,1777562202475,-0.0026727616786956787,0.0020253360271453857,-0.005933105945587158,0.01512923650443554,-0.017085036262869835,0.002309114672243595
2026-04-30T15:16:42.942315+00:00,S005,1,50,1777562202555,1777562202640,message,1777562202496,0.004528433084487915,0.0021582990884780884,-0.01323026418685913,-0.014123459346592426,-0.012785819359123707,-0.002281642286106944
2026-04-30T15:16:42.942315+00:00,S005,1,50,1777562202555,1777562202640,message,1777562202519,0.0020100772380828857,-0.0019962042570114136,-0.0125197172164917,-0.04145121946930885,-0.002445183228701353,-0.0024536296259611845
2026-04-30T15:16:42.942315+00:00,S005,1,50,1777562202555,1777562202640,message,1777562202535,0.0015746653079986572,-0.0010745823383331299,-0.013112664222717285,-0.012262441217899323,0.0030907681211829185,-0.0037285375874489546
2026-04-30T15:16:42.942315+00:00,S005,1,50,1777562202555,1777562202640,message,1777562202555,-0.005996033549308777,-0.0032304376363754272,-0.003913164138793945,0.004562610760331154,0.006104933563619852,-0.014558388851583004
2026-04-30T15:16:43.053162+00:00,S005,2,50,1777562202756,1777562202852,message,1777562202575,0.0005244910717010498,-0.014888569712638855,0.00026988983154296875,-0.022318538278341293,0.0032528401352465153,-0.014603822492063046
2026-04-30T15:16:43.053162+00:00,S005,2,50,1777562202756,1777562202852,message,1777562202596,-0.0014015436172485352,-0.006879910826683044,-0.006557345390319824,-0.01916535571217537,-0.002119326265528798,-0.02029760740697384
2026-04-30T15:16:43.053162+00:00,S005,2,50,1777562202756,1777562202852,message,1777562202615,0.004078194499015808,0.007454857230186462,-0.0063590407371521,0.005766360089182854,0.0009060247102752328,-0.012638196349143982
2026-04-30T15:16:43.053162+00:00,S005,2,50,1777562202756,1777562202852,message,1777562202635,0.0063766539096832275,0.006380707025527954,-0.00029647350311279297,-0.011196911334991455,-0.00034961767960339785,-0.013065633364021778
2026-04-30T15:16:43.053162+00:00,S005,2,50,1777562202756,1777562202852,message,1777562202655,0.0050820112228393555,0.0020219087600708008,0.0011162161827087402,-0.0349712148308754,-0.004133360926061869,-0.005749131087213755
2026-04-30T15:16:43.053162+00:00,S005,2,50,1777562202756,1777562202852,message,1777562202676,0.0015331357717514038,0.004825487732887268,-0.0009930133819580078,-0.025715399533510208,-0.0016666268929839134,0.0016450820257887244
2026-04-30T15:16:43.053162+00:00,S005,2,50,1777562202756,1777562202852,message,1777562202697,0.0016416162252426147,0.004538625478744507,-0.008021891117095947,-0.00316615030169487,-0.004374833311885595,-3.942061448469758e-05
2026-04-30T15:16:43.053162+00:00,S005,2,50,1777562202756,1777562202852,message,1777562202716,0.0009877681732177734,-0.004248723387718201,-0.005905449390411377,-0.007653841748833656,-0.0013770272489637136,-0.00676315650343895
2026-04-30T15:16:43.053162+00:00,S005,2,50,1777562202756,1777562202852,message,1777562202736,0.003795623779296875,2.8699636459350586e-05,-0.010690689086914062,-0.014700832776725292,0.008594227954745293,-0.0016609660815447569
2026-04-30T15:16:43.053162+00:00,S005,2,50,1777562202756,1777562202852,message,1777562202756,-0.0003205835819244385,0.006192684173583984,-0.006495118141174316,0.009982142597436905,0.0073904795572161674,-0.002184223849326372
2026-04-30T15:16:43.085623+00:00,S005,3,50,1777562202957,1777562203026,message,1777562202776,0.0008094161748886108,0.0008329302072525024,-0.0015399456024169922,0.014058377593755722,0.00547361234202981,-0.0021884848829358816
2026-04-30T15:16:43.085623+00:00,S005,3,50,1777562202957,1777562203026,message,1777562202796,0.0019238442182540894,-0.006872221827507019,-0.001952528953552246,0.002361241728067398,0.0059067560359835625,-0.004578405525535345
2026-04-30T15:16:43.085623+00:00,S005,3,50,1777562202957,1777562203026,message,1777562202816,0.000405043363571167,-0.0012209266424179077,-0.004661381244659424,-0.009102069772779942,0.006433681584894657,-0.01163674145936966
2026-04-30T15:16:43.085623+00:00,S005,3,50,1777562202957,1777562203026,message,1777562202836,0.0031190216541290283,-0.0022329986095428467,-0.0027434229850769043,-0.01857839524745941,0.007547149434685707,-0.008063631132245064
2026-04-30T15:16:43.085623+00:00,S005,3,50,1777562202957,1777562203026,message,1777562202856,0.0021410584449768066,0.004101678729057312,-0.0005165338516235352,-0.014594306237995625,0.0036155248526483774,-0.010052479803562164
2026-04-30T15:16:43.085623+00:00,S005,3,50,1777562202957,1777562203026,message,1777562202876,-0.0011132508516311646,0.005277678370475769,-0.000164031982421875,0.008301420137286186,0.00396744254976511,-0.0019213699270039797
2026-04-30T15:16:43.085623+00:00,S005,3,50,1777562202957,1777562203026,message,1777562202897,0.0022492408752441406,0.007835537195205688,-0.0006723403930664062,0.02132347971200943,-0.000564610818400979,-0.0022197505459189415
2026-04-30T15:16:43.085623+00:00,S005,3,50,1777562202957,1777562203026,message,1777562202916,0.005853235721588135,-0.007691740989685059,-0.004148900508880615,-0.005375239998102188,0.002050346927717328,-0.004731005057692528
2026-04-30T15:16:43.085623+00:00,S005,3,50,1777562202957,1777562203026,message,1777562202937,0.007136836647987366,-0.0051531195640563965,-0.005306065082550049,-0.007605105638504028,0.004190387204289436,-0.005320628639310598
2026-04-30T15:16:43.085623+00:00,S005,3,50,1777562202957,1777562203026,message,1777562202957,0.0009685754776000977,-0.006416648626327515,-0.0008806586265563965,-0.0029773321002721786,-0.0022292768117040396,-0.009051877073943615
2026-04-30T15:16:43.225355+00:00,S005,4,50,1777562203158,1777562203256,message,1777562202977,-0.001979514956474304,-0.008925437927246094,0.0018482804298400879,-0.0019813086837530136,-0.010630637407302856,-0.008762924931943417
2026-04-30T15:16:43.225355+00:00,S005,4,50,1777562203158,1777562203256,message,1777562202997,-0.0010341107845306396,0.0015368014574050903,0.004519939422607422,-0.0016827676445245743,-0.01236732304096222,-0.0023064096458256245
2026-04-30T15:16:43.225355+00:00,S005,4,50,1777562203158,1777562203256,message,1777562203017,0.0013233572244644165,0.0032623708248138428,-0.006528198719024658,0.0009740013629198074,-0.004533557686954737,-0.002141613280400634
2026-04-30T15:16:43.225355+00:00,S005,4,50,1777562203158,1777562203256,message,1777562203037,0.004669651389122009,0.01124456524848938,-0.01735609769821167,0.008518736809492111,0.00493287667632103,-0.00510619068518281
2026-04-30T15:16:43.225355+00:00,S005,4,50,1777562203158,1777562203256,message,1777562203057,0.00516510009765625,0.002923622727394104,-0.006285488605499268,-0.018777599558234215,0.005242297891527414,0.004101528786122799
2026-04-30T15:16:43.225355+00:00,S005,4,50,1777562203158,1777562203256,message,1777562203077,0.006046473979949951,-0.0023453086614608765,-0.00485914945602417,-0.009833372198045254,0.002812695689499378,-0.005606012884527445
2026-04-30T15:16:43.225355+00:00,S005,4,50,1777562203158,1777562203256,message,1777562203097,0.0012362003326416016,-0.006761878728866577,0.003681957721710205,0.012517740949988365,-0.007316218689084053,-0.04030636325478554
2026-04-30T15:16:43.225355+00:00,S005,4,50,1777562203158,1777562203256,message,1777562203117,0.0017063170671463013,-0.00832568109035492,0.008731663227081299,0.03197585791349411,-0.012062200345098972,-0.03782930225133896
2026-04-30T15:16:43.225355+00:00,S005,4,50,1777562203158,1777562203256,message,1777562203137,-0.004467889666557312,0.0006939470767974854,0.0016033053398132324,0.05898457393050194,-0.017307143658399582,-0.037629351019859314
2026-04-30T15:16:43.225355+00:00,S005,4,50,1777562203158,1777562203256,message,1777562203157,0.0032612234354019165,0.002870231866836548,-0.012629687786102295,0.01620408706367016,-0.007910065352916718,-0.029178449884057045
2026-04-30T15:16:43.396105+00:00,S005,5,50,1777562203359,1777562203427,message,1777562203178,0.002680867910385132,0.0011213868856430054,-0.01577603816986084,-0.0059089381247758865,0.0036196717992424965,-0.02183195948600769
2026-04-30T15:16:43.396105+00:00,S005,5,50,1777562203359,1777562203427,message,1777562203198,-0.0009877830743789673,0.013955384492874146,-0.01275622844696045,0.03601667284965515,0.006889082491397858,-0.007314697373658419
2026-04-30T15:16:43.396105+00:00,S005,5,50,1777562203359,1777562203427,message,1777562203218,-0.003665909171104431,0.012232214212417603,-0.005714118480682373,0.05185769125819206,0.00861073937267065,-0.004077198915183544
2026-04-30T15:16:43.396105+00:00,S005,5,50,1777562203359,1777562203427,message,1777562203238,0.0024848878383636475,-0.006498053669929504,0.002708613872528076,0.016651500016450882,0.005317398812621832,-0.007480079308152199
2026-04-30T15:16:43.396105+00:00,S005,5,50,1777562203359,1777562203427,message,1777562203258,0.0028034597635269165,-0.009528964757919312,-0.002566397190093994,-0.0010193735361099243,0.002939766738563776,-0.007057808339595795
2026-04-30T15:16:43.396105+00:00,S005,5,50,1777562203359,1777562203427,message,1777562203280,-0.0011283159255981445,0.0020912885665893555,-0.006237387657165527,0.01091265119612217,0.005324399098753929,-0.0018618217436596751
2026-04-30T15:16:43.396105+00:00,S005,5,50,1777562203359,1777562203427,message,1777562203298,0.0016062408685684204,-0.005996674299240112,-0.0024991631507873535,0.004649430513381958,0.003782200627028942,-0.010368970222771168
2026-04-30T15:16:43.396105+00:00,S005,5,50,1777562203359,1777562203427,message,1777562203318,0.00584392249584198,0.0016227662563323975,0.005469262599945068,0.018333548679947853,0.0014356514438986778,-0.006681983359158039
2026-04-30T15:16:43.396105+00:00,S005,5,50,1777562203359,1777562203427,message,1777562203339,-0.0015494376420974731,-0.003837287425994873,-0.0032414793968200684,0.01476571150124073,-0.0015321753453463316,-0.014691067859530449
2026-04-30T15:16:43.396105+00:00,S005,5,50,1777562203359,1777562203427,message,1777562203358,0.0019961148500442505,-0.008033394813537598,-0.004548251628875732,-0.02158137410879135,-0.002327243098989129,-0.012654547579586506
2026-04-30T15:16:43.738291+00:00,S005,6,50,1777562203560,1777562203679,message,1777562203380,0.0023481398820877075,0.0025595426559448242,-0.0008251667022705078,-0.015456904657185078,-0.001370597630739212,-0.012306367047131062
2026-04-30T15:16:43.738291+00:00,S005,6,50,1777562203560,1777562203679,message,1777562203399,0.004825010895729065,0.010175555944442749,-0.007564723491668701,0.03532691299915314,-0.001164735178463161,-0.011549336835741997
2026-04-30T15:16:43.738291+00:00,S005,6,50,1777562203560,1777562203679,message,1777562203419,0.00235767662525177,0.0008755326271057129,-0.005232036113739014,0.018465109169483185,0.0020748861134052277,-0.005582311190664768
2026-04-30T15:16:43.738291+00:00,S005,6,50,1777562203560,1777562203679,message,1777562203439,0.0018585920333862305,-0.008849099278450012,-0.008827149868011475,-0.017590895295143127,0.0029064391274005175,-0.00457105552777648
2026-04-30T15:16:43.738291+00:00,S005,6,50,1777562203560,1777562203679,message,1777562203459,0.00010973215103149414,-0.0013072341680526733,0.00021952390670776367,-0.0024431012570858,0.0019038351019844413,-0.005633603781461716
2026-04-30T15:16:43.738291+00:00,S005,6,50,1777562203560,1777562203679,message,1777562203480,7.02589750289917e-05,-0.0007389932870864868,-0.013386070728302002,0.021829217672348022,0.008427400141954422,-0.011822043918073177
2026-04-30T15:16:43.738291+00:00,S005,6,50,1777562203560,1777562203679,message,1777562203499,-0.0006799995899200439,0.00472530722618103,-0.0062694549560546875,0.036463286727666855,0.009687265381217003,-0.014652185142040253
2026-04-30T15:16:43.738291+00:00,S005,6,50,1777562203560,1777562203679,message,1777562203519,0.002163514494895935,-0.0005991607904434204,-0.004713952541351318,0.0161548163741827,0.005605515092611313,-0.008966175839304924
2026-04-30T15:16:43.738291+00:00,S005,6,50,1777562203560,1777562203679,message,1777562203539,0.0016673803329467773,-0.0007260441780090332,-0.0022115111351013184,0.010369634255766869,0.007425100542604923,-0.005562922917306423
2026-04-30T15:16:43.738291+00:00,S005,6,50,1777562203560,1777562203679,message,1777562203560,0.004260390996932983,-0.0017756521701812744,-0.0004987120628356934,0.023606345057487488,0.004338040482252836,-0.0015853855293244123
2026-04-30T15:16:43.798580+00:00,S005,7,50,1777562203761,1777562203830,message,1777562203581,0.001554742455482483,-0.003268823027610779,-7.569789886474609e-06,0.045777421444654465,0.002311108633875847,-0.002219537505879998
2026-04-30T15:16:43.798580+00:00,S005,7,50,1777562203761,1777562203830,message,1777562203600,-0.0018117427825927734,0.0010725408792495728,0.002355217933654785,0.055003151297569275,-0.007759635336697102,-0.0012577101588249207
2026-04-30T15:16:43.798580+00:00,S005,7,50,1777562203761,1777562203830,message,1777562203619,0.0012554973363876343,0.002088218927383423,0.004311740398406982,0.03664997220039368,-0.005562565289437771,0.003583064302802086
2026-04-30T15:16:43.798580+00:00,S005,7,50,1777562203761,1777562203830,message,1777562203640,0.004166841506958008,-0.011079773306846619,0.0013077855110168457,-0.0020196568220853806,-0.012315047904849052,-0.007536591496318579
2026-04-30T15:16:43.798580+00:00,S005,7,50,1777562203761,1777562203830,message,1777562203660,0.0032043009996414185,-0.004130199551582336,-0.006094038486480713,-0.0024359095841646194,-0.007982921786606312,-0.01261870190501213
2026-04-30T15:16:43.798580+00:00,S005,7,50,1777562203761,1777562203830,message,1777562203680,-0.000489652156829834,0.005553394556045532,-0.00477522611618042,0.030797678977251053,-0.00451978575438261,-0.0033692242577672005
2026-04-30T15:16:43.798580+00:00,S005,7,50,1777562203761,1777562203830,message,1777562203700,0.001891106367111206,-0.011005908250808716,-0.003265202045440674,-0.00827728770673275,-0.00845803041011095,-0.0062909782864153385
2026-04-30T15:16:43.798580+00:00,S005,7,50,1777562203761,1777562203830,message,1777562203720,0.00331096351146698,-0.011563211679458618,-0.005358457565307617,-0.01116628386080265,-0.004741094075143337,-0.001035549328662455
2026-04-30T15:16:43.798580+00:00,S005,7,50,1777562203761,1777562203830,message,1777562203740,-0.0010764896869659424,0.011784836649894714,-0.010259032249450684,0.030514582991600037,-0.001396011677570641,0.0027031025383621454
2026-04-30T15:16:43.798580+00:00,S005,7,50,1777562203761,1777562203830,message,1777562203760,-0.0047445148229599,0.0002034902572631836,-0.010515093803405762,0.015306603163480759,0.003965350333601236,-0.003289382439106703
2026-04-30T15:16:44.033814+00:00,S005,8,50,1777562203962,1777562204069,message,1777562203782,0.001993149518966675,-0.008182764053344727,-0.0029796361923217773,-0.01705266907811165,0.0014207757776603103,-6.85554405208677e-05
2026-04-30T15:16:44.033814+00:00,S005,8,50,1777562203962,1777562204069,message,1777562203800,-0.0008300691843032837,0.0035328716039657593,-0.002688765525817871,0.014126289635896683,-9.189976844936609e-05,-0.010937288403511047
2026-04-30T15:16:44.033814+00:00,S005,8,50,1777562203962,1777562204069,message,1777562203821,0.0046516358852386475,0.0032743066549301147,-0.006914794445037842,0.023119516670703888,0.0011821564985439181,-0.008118598721921444
2026-04-30T15:16:44.033814+00:00,S005,8,50,1777562203962,1777562204069,message,1777562203841,0.0024849623441696167,0.004602342844009399,-0.004427790641784668,0.013479672372341156,0.0033312514424324036,0.008159653283655643
2026-04-30T15:16:44.033814+00:00,S005,8,50,1777562203962,1777562204069,message,1777562203861,0.0009374767541885376,0.0006617307662963867,0.0034213662147521973,-0.004867376759648323,0.0019055850571021438,0.009676910005509853
2026-04-30T15:16:44.033814+00:00,S005,8,50,1777562203962,1777562204069,message,1777562203881,0.004488065838813782,-0.005941271781921387,-0.003993213176727295,-0.011280267499387264,-0.005785738117992878,0.011956415139138699
2026-04-30T15:16:44.033814+00:00,S005,8,50,1777562203962,1777562204069,message,1777562203901,-0.0007824450731277466,-0.0011327266693115234,-0.003159642219543457,0.009124338626861572,-0.0034289928153157234,-0.001313743181526661
2026-04-30T15:16:44.033814+00:00,S005,8,50,1777562203962,1777562204069,message,1777562203921,0.002493128180503845,-0.005452960729598999,-0.001465439796447754,0.009124072268605232,-0.0038625174202024937,-0.006667762063443661
2026-04-30T15:16:44.033814+00:00,S005,8,50,1777562203962,1777562204069,message,1777562203941,0.004765555262565613,-0.0005628019571304321,-0.0010067224502563477,-0.000681951642036438,-0.003649882972240448,-0.00948320236057043
2026-04-30T15:16:44.033814+00:00,S005,8,50,1777562203962,1777562204069,message,1777562203961,4.388391971588135e-05,-0.0013642609119415283,-0.006122589111328125,0.002246459946036339,-0.0053124562837183475,-0.006972374394536018
2026-04-30T15:16:44.270140+00:00,S005,9,50,1777562204162,1777562204274,message,1777562203981,-0.0036034733057022095,0.005791842937469482,-0.011151909828186035,0.019607339054346085,0.003657944966107607,-0.005362280644476414
2026-04-30T15:16:44.270140+00:00,S005,9,50,1777562204162,1777562204274,message,1777562204001,-0.0021973252296447754,0.0010612159967422485,-0.007605791091918945,0.008972804993391037,0.003547081258147955,-0.0031733219511806965
2026-04-30T15:16:44.270140+00:00,S005,9,50,1777562204162,1777562204274,message,1777562204022,0.0041367411613464355,-0.009856536984443665,-0.005071699619293213,-0.016194066032767296,0.005605020560324192,0.003982485271990299
2026-04-30T15:16:44.270140+00:00,S005,9,50,1777562204162,1777562204274,message,1777562204042,0.002221614122390747,-0.003949224948883057,-0.0059850215911865234,0.006212439388036728,0.008935036137700081,-0.0008080622646957636
2026-04-30T15:16:44.270140+00:00,S005,9,50,1777562204162,1777562204274,message,1777562204062,-0.005254656076431274,0.0029084384441375732,-0.006994664669036865,0.035673126578330994,0.005171000957489014,-0.008654533885419369
2026-04-30T15:16:44.270140+00:00,S005,9,50,1777562204162,1777562204274,message,1777562204082,0.0009768158197402954,-0.006320372223854065,0.0004892349243164062,-0.005782438442111015,0.0034352289512753487,-0.005918348673731089
2026-04-30T15:16:44.270140+00:00,S005,9,50,1777562204162,1777562204274,message,1777562204102,0.00450560450553894,-0.0021016448736190796,0.002079904079437256,-0.02519155666232109,0.0004950989969074726,-0.0022455300204455853
2026-04-30T15:16:44.270140+00:00,S005,9,50,1777562204162,1777562204274,message,1777562204122,0.001535370945930481,0.011224403977394104,-0.001844942569732666,0.0021785497665405273,-0.0013896201271563768,0.010218597017228603
2026-04-30T15:16:44.270140+00:00,S005,9,50,1777562204162,1777562204274,message,1777562204142,0.0002586245536804199,-0.0011357218027114868,-0.00485306978225708,-0.011745255440473557,-0.0018612658604979515,0.005799080710858107
2026-04-30T15:16:44.270140+00:00,S005,9,50,1777562204162,1777562204274,message,1777562204162,0.0037929266691207886,-0.004398271441459656,0.00228196382522583,-0.02049640379846096,-0.0032706866040825844,0.002215797547250986
2026-04-30T15:16:44.387246+00:00,S005,10,50,1777562204364,1777562204423,message,1777562204182,0.0032788068056106567,0.002528369426727295,-0.001058340072631836,0.001475740224123001,-0.006813946645706892,0.004163207486271858
2026-04-30T15:16:44.387246+00:00,S005,10,50,1777562204364,1777562204423,message,1777562204202,0.0015719681978225708,-0.0009785890579223633,-0.000544428825378418,0.006596200168132782,-0.009104987606406212,0.0006486338097602129
2026-04-30T15:16:44.387246+00:00,S005,10,50,1777562204364,1777562204423,message,1777562204222,-0.0013132840394973755,-0.0028463155031204224,-0.004712522029876709,-0.010073590092360973,-0.006336213555186987,0.010044531896710396
2026-04-30T15:16:44.387246+00:00,S005,10,50,1777562204364,1777562204423,message,1777562204243,-0.0012142956256866455,-0.0005844235420227051,-0.00945746898651123,-0.002824198454618454,-0.006000693421810865,0.0012033702805638313
2026-04-30T15:16:44.387246+00:00,S005,10,50,1777562204364,1777562204423,message,1777562204263,-0.0015152692794799805,0.0019712746143341064,-0.00835949182510376,0.012632520869374275,-0.001220699748955667,0.007082032039761543
2026-04-30T15:16:44.387246+00:00,S005,10,50,1777562204364,1777562204423,message,1777562204283,0.0013474076986312866,-0.0025850385427474976,-0.004467010498046875,-0.00298505462706089,-0.001493407296948135,0.011696651577949524
2026-04-30T15:16:44.387246+00:00,S005,10,50,1777562204364,1777562204423,message,1777562204303,0.0018714964389801025,0.00158652663230896,-0.002376735210418701,-0.0022127367556095123,-0.003345940262079239,0.004375620745122433
2026-04-30T15:16:44.387246+00:00,S005,10,50,1777562204364,1777562204423,message,1777562204323,0.0010997354984283447,0.0017416328191757202,-0.004878044128417969,0.009187191724777222,-0.002498065587133169,0.0028135175816714764
2026-04-30T15:16:44.387246+00:00,S005,10,50,1777562204364,1777562204423,message,1777562204343,0.0027332156896591187,-0.005960792303085327,-0.00424879789352417,-0.009869325906038284,0.001623822725377977,0.005564243067055941
2026-04-30T15:16:44.387246+00:00,S005,10,50,1777562204364,1777562204423,message,1777562204363,-0.0010332465171813965,0.003425702452659607,-0.007727384567260742,0.011605607345700264,0.0033743565436452627,-0.0002791051228996366
2026-04-30T15:16:44.681201+00:00,S005,11,50,1777562204566,1777562204658,message,1777562204384,0.0004890412092208862,-0.00356215238571167,-0.007635653018951416,0.0034046676009893417,0.0036913868971168995,0.001482203253544867
2026-04-30T15:16:44.681201+00:00,S005,11,50,1777562204566,1777562204658,message,1777562204403,0.0017593950033187866,-0.006744205951690674,-0.0028107166290283203,-0.006494035944342613,0.0023086355067789555,-0.005092715844511986
2026-04-30T15:16:44.681201+00:00,S005,11,50,1777562204566,1777562204658,message,1777562204423,0.00032010674476623535,-0.0024030208587646484,-0.0025978684425354004,-0.010615010745823383,0.0013363155303522944,-0.0034070410765707493
2026-04-30T15:16:44.681201+00:00,S005,11,50,1777562204566,1777562204658,message,1777562204443,0.0003526657819747925,0.001497909426689148,-0.0020849108695983887,0.005645185708999634,0.00011053844355046749,0.002020161831751466
2026-04-30T15:16:44.681201+00:00,S005,11,50,1777562204566,1777562204658,message,1777562204465,0.0022958070039749146,0.0026426315307617188,-0.006763160228729248,0.007162921130657196,0.00289319921284914,0.0014378882478922606
2026-04-30T15:16:44.681201+00:00,S005,11,50,1777562204566,1777562204658,message,1777562204484,0.003301486372947693,-0.0009326189756393433,-0.0018036365509033203,-0.0005871430039405823,0.00024274538736790419,0.001714537269435823
2026-04-30T15:16:44.681201+00:00,S005,11,50,1777562204566,1777562204658,message,1777562204504,-0.00014701485633850098,-0.0030438601970672607,-0.0027279257774353027,-0.005283894017338753,-0.0014213878894224763,0.0017630067886784673
2026-04-30T15:16:44.681201+00:00,S005,11,50,1777562204566,1777562204658,message,1777562204524,0.001561671495437622,-0.0012105703353881836,-0.00502699613571167,-0.007188854739069939,0.0005106974858790636,-0.0011047914158552885
2026-04-30T15:16:44.681201+00:00,S005,11,50,1777562204566,1777562204658,message,1777562204544,0.0020240098237991333,-0.0011796355247497559,-0.001964867115020752,-0.014977268874645233,-0.0025620958767831326,-0.00433765584602952
2026-04-30T15:16:44.681201+00:00,S005,11,50,1777562204566,1777562204658,message,1777562204565,0.004448741674423218,-0.003209426999092102,0.0012363195419311523,-0.010310078039765358,-0.0017643648898229003,-0.0018395575461909175
2026-04-30T15:16:44.913603+00:00,S005,12,50,1777562204766,1777562204870,message,1777562204584,0.00011165440082550049,0.008677184581756592,-0.003719627857208252,0.021822558715939522,-0.0022372661624103785,6.758514064131305e-05
2026-04-30T15:16:44.913603+00:00,S005,12,50,1777562204766,1777562204870,message,1777562204604,0.000361710786819458,-0.0009017437696456909,-0.006223142147064209,0.006932025775313377,-0.002403333317488432,-0.0003874424728564918
2026-04-30T15:16:44.913603+00:00,S005,12,50,1777562204766,1777562204870,message,1777562204624,0.002834141254425049,-0.006886273622512817,-0.0006511211395263672,-0.01777838170528412,-0.0020407249685376883,0.0018344861455261707
2026-04-30T15:16:44.913603+00:00,S005,12,50,1777562204766,1777562204870,message,1777562204645,0.0008295625448226929,0.0022554993629455566,-0.005735456943511963,0.001154296100139618,-0.0024068334605544806,0.009009042754769325
2026-04-30T15:16:44.913603+00:00,S005,12,50,1777562204766,1777562204870,message,1777562204666,-0.0009073913097381592,0.000504806637763977,-0.002794623374938965,0.005265684798359871,-0.0025748407933861017,0.0014643067261204123
2026-04-30T15:16:44.913603+00:00,S005,12,50,1777562204766,1777562204870,message,1777562204685,0.0012636184692382812,-0.0018993020057678223,-0.005554318428039551,0.009030597284436226,-0.0024748961441218853,-0.0003025942714884877
2026-04-30T15:16:44.913603+00:00,S005,12,50,1777562204766,1777562204870,message,1777562204705,-0.0010523200035095215,-0.001925647258758545,-0.004324078559875488,-4.6523287892341614e-05,-0.0016792197711765766,0.005293400026857853
2026-04-30T15:16:44.913603+00:00,S005,12,50,1777562204766,1777562204870,message,1777562204725,0.004020899534225464,-0.00629347562789917,-0.0007299184799194336,-0.017379973083734512,-0.009369591251015663,0.001289816340431571
2026-04-30T15:16:44.913603+00:00,S005,12,50,1777562204766,1777562204870,message,1777562204747,0.0024181753396987915,0.0031076371669769287,0.00046187639236450195,-0.0072969794273376465,-0.006403134670108557,-0.0032713261898607016
2026-04-30T15:16:44.913603+00:00,S005,12,50,1777562204766,1777562204870,message,1777562204766,-0.0019792169332504272,0.004854947328567505,-0.0074304938316345215,-0.0005053840577602386,-0.006006019655615091,-0.003289915155619383
2026-04-30T15:16:45.003243+00:00,S005,13,50,1777562204966,1777562205021,message,1777562204785,8.359551429748535e-05,0.0025371313095092773,-0.006083130836486816,-0.005377637222409248,-0.0013522978406399488,0.006005795672535896
2026-04-30T15:16:45.003243+00:00,S005,13,50,1777562204966,1777562205021,message,1777562204805,0.0028634220361709595,-0.002645522356033325,0.0012770891189575195,-0.010919677093625069,-0.0075637404806911945,0.011155283078551292
2026-04-30T15:16:45.003243+00:00,S005,13,50,1777562204966,1777562205021,message,1777562204825,0.0028325319290161133,0.0009137988090515137,-0.0003555417060852051,-0.005018377676606178,-0.009622935205698013,0.01098132599145174
2026-04-30T15:16:45.003243+00:00,S005,13,50,1777562204966,1777562205021,message,1777562204845,-0.0014997273683547974,-8.687376976013184e-06,-0.008971095085144043,0.004526657983660698,-0.004353756550699472,0.007241928018629551
2026-04-30T15:16:45.003243+00:00,S005,13,50,1777562204966,1777562205021,message,1777562204867,-0.0026275664567947388,0.003917530179023743,-0.01041334867477417,0.014120163396000862,0.001495039789006114,0.004497913643717766
2026-04-30T15:16:45.003243+00:00,S005,13,50,1777562204966,1777562205021,message,1777562204885,0.001840546727180481,-0.002005636692047119,-0.007435500621795654,-0.008783821016550064,-0.0006563758943229914,0.008973143063485622
2026-04-30T15:16:45.003243+00:00,S005,13,50,1777562204966,1777562205021,message,1777562204905,0.0024675726890563965,-0.00650101900100708,-0.0007078647613525391,-0.015392456203699112,-0.0021667685359716415,0.009205796755850315
2026-04-30T15:16:45.003243+00:00,S005,13,50,1777562204966,1777562205021,message,1777562204925,-0.0036612600088119507,-0.002307400107383728,-0.0042258501052856445,-0.010660017840564251,-0.002738663461059332,0.01123491209000349
2026-04-30T15:16:45.003243+00:00,S005,13,50,1777562204966,1777562205021,message,1777562204946,-0.0048227459192276,-0.008862018585205078,-0.0016366243362426758,-0.028115442022681236,-0.0007662881398573518,0.01447837520390749
2026-04-30T15:16:45.003243+00:00,S005,13,50,1777562204966,1777562205021,message,1777562204966,0.0013025403022766113,-0.011931300163269043,0.0008693933486938477,-0.046642519533634186,-0.0031154626049101353,0.02562386356294155
2026-04-30T15:16:45.221838+00:00,S005,14,50,1777562205168,1777562205253,message,1777562204986,0.005067676305770874,-0.003248453140258789,-0.008759617805480957,-0.012877366505563259,0.0034109940752387047,0.029428135603666306
2026-04-30T15:16:45.221838+00:00,S005,14,50,1777562205168,1777562205253,message,1777562205006,0.0010033398866653442,0.004183262586593628,-0.013427257537841797,-0.005504671484231949,0.012824583798646927,0.02653796784579754
2026-04-30T15:16:45.221838+00:00,S005,14,50,1777562205168,1777562205253,message,1777562205026,0.0018802136182785034,0.0005283951759338379,-0.014956057071685791,-0.03378531336784363,0.028070343658328056,0.02067405916750431
2026-04-30T15:16:45.221838+00:00,S005,14,50,1777562205168,1777562205253,message,1777562205046,0.0025549232959747314,0.010727480053901672,-0.005516231060028076,-0.03368917107582092,0.029483720660209656,0.012908442877233028
2026-04-30T15:16:45.221838+00:00,S005,14,50,1777562205168,1777562205253,message,1777562205067,0.004792526364326477,0.01718597114086151,-0.008753538131713867,-0.0500849187374115,0.027312826365232468,0.01820206269621849
2026-04-30T15:16:45.221838+00:00,S005,14,50,1777562205168,1777562205253,message,1777562205086,-0.0007571280002593994,0.014244496822357178,0.00046116113662719727,-0.11452889442443848,0.028838930651545525,0.040273912250995636
2026-04-30T15:16:45.221838+00:00,S005,14,50,1777562205168,1777562205253,message,1777562205108,-0.01124429702758789,0.0077957212924957275,-0.024626553058624268,-0.18704624474048615,0.05306803062558174,0.028713930398225784
2026-04-30T15:16:45.221838+00:00,S005,14,50,1777562205168,1777562205253,message,1777562205127,-0.023747384548187256,-0.0068550556898117065,-0.077869713306427,-0.22426177561283112,0.11969289928674698,-0.01801389269530773
2026-04-30T15:16:45.221838+00:00,S005,14,50,1777562205168,1777562205253,message,1777562205147,-0.04648353159427643,-0.028610587120056152,-0.11927860975265503,-0.34126803278923035,0.1964224874973297,-0.12266121059656143
2026-04-30T15:16:45.221838+00:00,S005,14,50,1777562205168,1777562205253,message,1777562205167,-0.06691618263721466,-0.08690811693668365,-0.15499329566955566,-0.5529611110687256,0.29463282227516174,-0.2037443369626999
2026-04-30T15:16:45.414056+00:00,S005,15,50,1777562205368,1777562205442,message,1777562205187,-0.07726764678955078,-0.1382538229227066,-0.16449886560440063,-0.7302528023719788,0.36607879400253296,-0.04602012038230896
2026-04-30T15:16:45.414056+00:00,S005,15,50,1777562205368,1777562205442,message,1777562205207,-0.14065143465995789,-0.20544320344924927,-0.13778901100158691,-0.967240035533905,0.43900251388549805,-0.3904849886894226
2026-04-30T15:16:45.414056+00:00,S005,15,50,1777562205368,1777562205442,message,1777562205227,-0.0877084732055664,-0.1854272484779358,-0.08763045072555542,-1.1636548042297363,0.48903176188468933,-0.41487231850624084
2026-04-30T15:16:45.414056+00:00,S005,15,50,1777562205368,1777562205442,message,1777562205247,-0.1554698497056961,-0.08674740046262741,-0.02956479787826538,-1.0432416200637817,0.5218361020088196,-0.5043801069259644
2026-04-30T15:16:45.414056+00:00,S005,15,50,1777562205368,1777562205442,message,1777562205267,-0.1672099232673645,-0.017159439623355865,-0.015990495681762695,-0.8327216506004333,0.5393783450126648,-0.5878557562828064
2026-04-30T15:16:45.414056+00:00,S005,15,50,1777562205368,1777562205442,message,1777562205287,-0.1820218563079834,-0.01293656975030899,0.017826557159423828,-0.716785728931427,0.503125011920929,-0.542408287525177
2026-04-30T15:16:45.414056+00:00,S005,15,50,1777562205368,1777562205442,message,1777562205307,-0.14833468198776245,-0.005673212930560112,0.01806539297103882,-0.971862256526947,0.4632008969783783,-0.56513911485672
2026-04-30T15:16:45.414056+00:00,S005,15,50,1777562205368,1777562205442,message,1777562205328,-0.08941790461540222,0.016860399395227432,0.04157382249832153,-1.5296213626861572,0.47649380564689636,-0.520793616771698
2026-04-30T15:16:45.414056+00:00,S005,15,50,1777562205368,1777562205442,message,1777562205348,-0.17587721347808838,0.02100866287946701,0.053740739822387695,-1.3165093660354614,0.405271053314209,-0.4696330726146698
2026-04-30T15:16:45.414056+00:00,S005,15,50,1777562205368,1777562205442,message,1777562205368,-0.1467263102531433,0.12675036489963531,0.035160839557647705,-0.47975239157676697,0.2818264961242676,-0.4417954683303833
2026-04-30T15:16:45.626341+00:00,S005,16,50,1777562205569,1777562205656,message,1777562205388,-0.08424583077430725,0.09046997129917145,0.10065478086471558,0.02271099016070366,0.033338382840156555,-0.5256693363189697
2026-04-30T15:16:45.626341+00:00,S005,16,50,1777562205569,1777562205656,message,1777562205408,-0.0773598849773407,0.030052773654460907,0.15711456537246704,-0.11400904506444931,-0.111603744328022,-0.4427225887775421
2026-04-30T15:16:45.626341+00:00,S005,16,50,1777562205569,1777562205656,message,1777562205428,-0.09032493829727173,-0.01609957218170166,0.10973381996154785,-0.5173373222351074,-0.16274245083332062,-0.4483030438423157
2026-04-30T15:16:45.626341+00:00,S005,16,50,1777562205569,1777562205656,message,1777562205448,-0.06073594093322754,0.026080429553985596,0.07498884201049805,-0.7685239911079407,-0.211689293384552,-0.476113498210907
2026-04-30T15:16:45.626341+00:00,S005,16,50,1777562205569,1777562205656,message,1777562205468,-0.030492395162582397,0.041916392743587494,0.06405520439147949,-0.7803769707679749,-0.2582189440727234,-0.5479334592819214
2026-04-30T15:16:45.626341+00:00,S005,16,50,1777562205569,1777562205656,message,1777562205488,-0.015689969062805176,0.05432528257369995,0.05982851982116699,-0.6005408763885498,-0.2496844232082367,-0.5962436199188232
2026-04-30T15:16:45.626341+00:00,S005,16,50,1777562205569,1777562205656,message,1777562205511,-0.004306226968765259,0.08613383769989014,0.04188084602355957,-0.26025813817977905,-0.22788381576538086,-0.6492140889167786
2026-04-30T15:16:45.626341+00:00,S005,16,50,1777562205569,1777562205656,message,1777562205529,0.041923344135284424,0.10197439789772034,0.025092124938964844,0.10219570249319077,-0.20475102961063385,-0.7044707536697388
2026-04-30T15:16:45.626341+00:00,S005,16,50,1777562205569,1777562205656,message,1777562205549,0.08318763971328735,0.0863250195980072,0.02261871099472046,0.1820223480463028,-0.20867976546287537,-0.7011931538581848
2026-04-30T15:16:45.626341+00:00,S005,16,50,1777562205569,1777562205656,message,1777562205569,0.10768646001815796,0.0929660052061081,0.0673864483833313,0.17090898752212524,-0.20360393822193146,-0.6836296319961548
2026-04-30T15:16:45.833413+00:00,S005,17,50,1777562205770,1777562205826,message,1777562205589,0.11831948161125183,0.08559900522232056,0.05656665563583374,0.3272581100463867,-0.2263382077217102,-0.6347436904907227
2026-04-30T15:16:45.833413+00:00,S005,17,50,1777562205770,1777562205826,message,1777562205609,0.14713585376739502,0.08138272166252136,0.03121650218963623,0.3734937608242035,-0.22144120931625366,-0.543114185333252
2026-04-30T15:16:45.833413+00:00,S005,17,50,1777562205770,1777562205826,message,1777562205629,0.16216470301151276,0.06503318250179291,0.025189697742462158,0.35383349657058716,-0.21130195260047913,-0.4374900460243225
2026-04-30T15:16:45.833413+00:00,S005,17,50,1777562205770,1777562205826,message,1777562205651,0.17749513685703278,0.07849156856536865,0.016924023628234863,0.4606960415840149,-0.22707928717136383,-0.3484366536140442
2026-04-30T15:16:45.833413+00:00,S005,17,50,1777562205770,1777562205826,message,1777562205669,0.16356810927391052,0.09376487135887146,0.003226041793823242,0.7133322954177856,-0.2374490350484848,-0.2732064127922058
2026-04-30T15:16:45.833413+00:00,S005,17,50,1777562205770,1777562205826,message,1777562205689,0.15705548226833344,0.06873094290494919,0.02106475830078125,0.8265373706817627,-0.2645814120769501,-0.2522454559803009
2026-04-30T15:16:45.833413+00:00,S005,17,50,1777562205770,1777562205826,message,1777562205709,0.14273087680339813,0.00706096738576889,0.029418587684631348,0.6887941956520081,-0.25047925114631653,-0.19736069440841675
2026-04-30T15:16:45.833413+00:00,S005,17,50,1777562205770,1777562205826,message,1777562205730,0.11596861481666565,-0.05008102208375931,-0.0016857385635375977,0.46537894010543823,-0.1991531401872635,-0.16508089005947113
2026-04-30T15:16:45.833413+00:00,S005,17,50,1777562205770,1777562205826,message,1777562205751,0.10425357520580292,-0.07922153919935226,-0.0151292085647583,0.3205288350582123,-0.15324774384498596,-0.11802752315998077
2026-04-30T15:16:45.833413+00:00,S005,17,50,1777562205770,1777562205826,message,1777562205770,0.09271861612796783,-0.04657308757305145,-0.01614820957183838,0.41739705204963684,-0.1596405804157257,-0.10547423362731934
2026-04-30T15:16:46.050414+00:00,S005,18,50,1777562205971,1777562206081,message,1777562205790,0.0848516970872879,-0.01481819897890091,-0.011091887950897217,0.6012483835220337,-0.193668931722641,-0.11200851202011108
2026-04-30T15:16:46.050414+00:00,S005,18,50,1777562205971,1777562206081,message,1777562205810,0.06459900736808777,-0.027568042278289795,0.002631545066833496,0.6470054984092712,-0.20408369600772858,-0.13304391503334045
2026-04-30T15:16:46.050414+00:00,S005,18,50,1777562205971,1777562206081,message,1777562205830,0.06856273114681244,-0.07667847722768784,0.029160678386688232,0.5232263207435608,-0.22386111319065094,-0.15176929533481598
2026-04-30T15:16:46.050414+00:00,S005,18,50,1777562205971,1777562206081,message,1777562205852,0.05324000120162964,-0.07921623438596725,0.02412813901901245,0.29322823882102966,-0.2159452885389328,-0.11565347760915756
2026-04-30T15:16:46.050414+00:00,S005,18,50,1777562205971,1777562206081,message,1777562205870,0.03486153483390808,-0.040918488055467606,-0.017041563987731934,0.15810370445251465,-0.17868538200855255,-0.08405288308858871
2026-04-30T15:16:46.050414+00:00,S005,18,50,1777562205971,1777562206081,message,1777562205890,0.04621775448322296,-0.011086611077189445,-0.0208817720413208,0.182383731007576,-0.17369526624679565,-0.09267556667327881
2026-04-30T15:16:46.050414+00:00,S005,18,50,1777562205971,1777562206081,message,1777562205910,0.024640202522277832,0.024223001673817635,-0.02011054754257202,0.3780733644962311,-0.17881682515144348,-0.04620814323425293
2026-04-30T15:16:46.050414+00:00,S005,18,50,1777562205971,1777562206081,message,1777562205930,0.01555567979812622,-0.0071852970868349075,-0.017542362213134766,0.4997784495353699,-0.19320178031921387,-0.07484713196754456
2026-04-30T15:16:46.050414+00:00,S005,18,50,1777562205971,1777562206081,message,1777562205952,-0.004919514060020447,-0.04434475675225258,-0.03668391704559326,0.2745363116264343,-0.11975130438804626,-0.0313594751060009
2026-04-30T15:16:46.050414+00:00,S005,18,50,1777562205971,1777562206081,message,1777562205971,-0.03246751427650452,-0.04316717013716698,-0.07596427202224731,0.04924299567937851,-0.01361105591058731,-0.0693470686674118
2026-04-30T15:16:46.197813+00:00,S005,19,50,1777562206171,1777562206231,message,1777562205991,-0.032064735889434814,-0.026673410087823868,-0.10033917427062988,0.10090646147727966,0.08807775378227234,-0.16132919490337372
2026-04-30T15:16:46.197813+00:00,S005,19,50,1777562206171,1777562206231,message,1777562206011,-0.03859111666679382,0.009926491416990757,-0.061644136905670166,0.31487199664115906,0.1061045378446579,-0.2629947364330292
2026-04-30T15:16:46.197813+00:00,S005,19,50,1777562206171,1777562206231,message,1777562206031,-0.042838141322135925,-0.019772617146372795,-0.020172536373138428,0.33602389693260193,0.14271701872348785,-0.3597663640975952
2026-04-30T15:16:46.197813+00:00,S005,19,50,1777562206171,1777562206231,message,1777562206051,-0.06030583381652832,-0.07377387583255768,-0.033928871154785156,-0.026947645470499992,0.2294958382844925,-0.425589919090271
2026-04-30T15:16:46.197813+00:00,S005,19,50,1777562206171,1777562206231,message,1777562206071,-0.0571424663066864,-0.0981401652097702,-0.042890191078186035,-0.3346748352050781,0.2901228368282318,-0.5486586093902588
2026-04-30T15:16:46.197813+00:00,S005,19,50,1777562206171,1777562206231,message,1777562206091,-0.04059113562107086,-0.05450064316391945,0.022356629371643066,-0.48600471019744873,0.27168402075767517,-0.6294366121292114
2026-04-30T15:16:46.197813+00:00,S005,19,50,1777562206171,1777562206231,message,1777562206111,-0.033178940415382385,-0.004565561190247536,0.09879922866821289,-0.6156977415084839,0.2501465082168579,-0.6875297427177429
2026-04-30T15:16:46.197813+00:00,S005,19,50,1777562206171,1777562206231,message,1777562206131,-0.025002747774124146,-0.05345381051301956,0.0458865761756897,-0.818250298500061,0.2909027934074402,-0.7029824256896973
2026-04-30T15:16:46.197813+00:00,S005,19,50,1777562206171,1777562206231,message,1777562206153,-0.029756009578704834,-0.046548694372177124,-0.04455208778381348,-0.8435721397399902,0.31168609857559204,-0.7533141374588013
2026-04-30T15:16:46.197813+00:00,S005,19,50,1777562206171,1777562206231,message,1777562206171,-0.016406521201133728,-0.04455952346324921,-0.025451183319091797,-0.7488051652908325,0.26327982544898987,-0.7978852391242981
2026-04-30T15:16:46.422481+00:00,S005,20,50,1777562206373,1777562206444,message,1777562206192,-0.004563957452774048,-0.0460997149348259,0.09298568964004517,-1.2881141901016235,0.14620010554790497,-0.755179226398468
2026-04-30T15:16:46.422481+00:00,S005,20,50,1777562206373,1777562206444,message,1777562206212,-0.0010448992252349854,-0.11784505844116211,0.1760803461074829,-2.504171848297119,0.12957969307899475,-0.6814560294151306
2026-04-30T15:16:46.422481+00:00,S005,20,50,1777562206373,1777562206444,message,1777562206232,0.0077490657567977905,-0.11671334505081177,0.17415004968643188,-3.563506603240967,0.16766217350959778,-0.5586398839950562
2026-04-30T15:16:46.422481+00:00,S005,20,50,1777562206373,1777562206444,message,1777562206253,0.015778660774230957,-0.016727924346923828,0.09948092699050903,-3.823913812637329,0.17579536139965057,-0.48329731822013855
2026-04-30T15:16:46.422481+00:00,S005,20,50,1777562206373,1777562206444,message,1777562206272,0.04225686192512512,0.06479206681251526,0.004742681980133057,-3.620692014694214,0.1395530104637146,-0.39344483613967896
2026-04-30T15:16:46.422481+00:00,S005,20,50,1777562206373,1777562206444,message,1777562206292,0.03874579071998596,0.08631494641304016,0.01436769962310791,-3.3910582065582275,0.09155157953500748,-0.3498598337173462
2026-04-30T15:16:46.422481+00:00,S005,20,50,1777562206373,1777562206444,message,1777562206312,0.044226035475730896,0.06216511130332947,0.05904531478881836,-3.4840352535247803,0.11780121922492981,-0.2521328330039978
2026-04-30T15:16:46.422481+00:00,S005,20,50,1777562206373,1777562206444,message,1777562206332,0.02832438051700592,0.04728180170059204,0.11026668548583984,-3.965524673461914,0.09773068875074387,-0.13724100589752197
2026-04-30T15:16:46.422481+00:00,S005,20,50,1777562206373,1777562206444,message,1777562206353,0.024953588843345642,0.07602202892303467,0.15456467866897583,-4.101456642150879,0.04818645492196083,-0.09691376984119415
2026-04-30T15:16:46.422481+00:00,S005,20,50,1777562206373,1777562206444,message,1777562206372,0.05260464549064636,0.1767217516899109,-0.057390689849853516,-3.3520307540893555,-0.007316751405596733,0.09159648418426514
2026-04-30T15:16:46.645695+00:00,S005,21,50,1777562206573,1777562206678,message,1777562206392,0.010934323072433472,0.08425247669219971,-0.11830759048461914,-2.8627586364746094,0.09858567267656326,0.037237219512462616
2026-04-30T15:16:46.645695+00:00,S005,21,50,1777562206573,1777562206678,message,1777562206416,0.001802876591682434,-0.03663891553878784,0.04171973466873169,-3.1148178577423096,0.12987378239631653,0.07565545290708542
2026-04-30T15:16:46.645695+00:00,S005,21,50,1777562206573,1777562206678,message,1777562206436,0.011997729539871216,-0.03343242406845093,0.10500121116638184,-3.3929598331451416,0.014080491848289967,0.051090553402900696
2026-04-30T15:16:46.645695+00:00,S005,21,50,1777562206573,1777562206678,message,1777562206453,0.027655750513076782,0.12264752388000488,-0.030168533325195312,-2.7281272411346436,0.03798818215727806,0.1534578949213028
2026-04-30T15:16:46.645695+00:00,S005,21,50,1777562206573,1777562206678,message,1777562206473,0.011675074696540833,0.08616775274276733,-0.046360552310943604,-2.3159825801849365,0.07262510061264038,0.09355183690786362
2026-04-30T15:16:46.645695+00:00,S005,21,50,1777562206573,1777562206678,message,1777562206493,-0.00024893879890441895,-0.07122176885604858,0.007739722728729248,-2.3669285774230957,0.020186664536595345,0.015125364065170288
2026-04-30T15:16:46.645695+00:00,S005,21,50,1777562206573,1777562206678,message,1777562206513,0.010827764868736267,0.009718716144561768,-0.05259948968887329,-1.9411782026290894,0.03870541229844093,0.0769764855504036
2026-04-30T15:16:46.645695+00:00,S005,21,50,1777562206573,1777562206678,message,1777562206533,-0.02069486677646637,-0.0173913836479187,-0.05735498666763306,-1.7453222274780273,0.07866165041923523,0.004366512876003981
2026-04-30T15:16:46.645695+00:00,S005,21,50,1777562206573,1777562206678,message,1777562206554,0.0025160908699035645,-0.05704683065414429,-0.006682872772216797,-1.8977054357528687,0.11187245696783066,0.021782200783491135
2026-04-30T15:16:46.645695+00:00,S005,21,50,1777562206573,1777562206678,message,1777562206573,-0.001838773488998413,0.008663833141326904,0.01389223337173462,-1.7759290933609009,0.05296892300248146,-0.013082624413073063
2026-04-30T15:16:46.881488+00:00,S005,22,50,1777562206775,1777562206847,message,1777562206593,0.032282754778862,0.0440787672996521,0.03318142890930176,-1.6316736936569214,0.015356793068349361,-0.005294369999319315
2026-04-30T15:16:46.881488+00:00,S005,22,50,1777562206775,1777562206847,message,1777562206613,0.013787537813186646,0.015149474143981934,-0.014127254486083984,-1.6691842079162598,0.012958008795976639,0.011160290800035
2026-04-30T15:16:46.881488+00:00,S005,22,50,1777562206775,1777562206847,message,1777562206633,0.0035357773303985596,0.027855098247528076,0.050999075174331665,-1.69394052028656,-0.0007605433347634971,0.030312253162264824
2026-04-30T15:16:46.881488+00:00,S005,22,50,1777562206775,1777562206847,message,1777562206653,0.029171809554100037,0.016608595848083496,0.040601879358291626,-1.6500591039657593,-0.04309103265404701,0.011648234911262989
2026-04-30T15:16:46.881488+00:00,S005,22,50,1777562206775,1777562206847,message,1777562206674,0.022397279739379883,0.02728813886642456,-0.02228337526321411,-1.6228538751602173,-0.0455133281648159,-0.015765387564897537
2026-04-30T15:16:46.881488+00:00,S005,22,50,1777562206775,1777562206847,message,1777562206694,-0.018158182501792908,-0.02247542142868042,-0.052683815360069275,-1.7069146633148193,-0.0287023913115263,-0.05398840457201004
2026-04-30T15:16:46.881488+00:00,S005,22,50,1777562206775,1777562206847,message,1777562206714,-0.0231926292181015,-0.041252970695495605,-0.064186692237854,-1.6764795780181885,-0.004361898172646761,-0.1016688421368599
2026-04-30T15:16:46.881488+00:00,S005,22,50,1777562206775,1777562206847,message,1777562206734,-0.020264476537704468,-0.06196361780166626,-0.06744880229234695,-1.5006262063980103,-0.06407102942466736,-0.20588339865207672
2026-04-30T15:16:46.881488+00:00,S005,22,50,1777562206775,1777562206847,message,1777562206756,-0.032597094774246216,-0.045212507247924805,-0.09671616554260254,-0.9200546741485596,-0.0425851084291935,-0.2545914053916931
2026-04-30T15:16:46.881488+00:00,S005,22,50,1777562206775,1777562206847,message,1777562206774,0.010078668594360352,0.025472700595855713,-0.06843310594558716,-0.4813612103462219,-0.10860608518123627,-0.2784939408302307
2026-04-30T15:16:47.004613+00:00,S005,23,50,1777562206976,1777562207040,message,1777562206794,-0.012149319052696228,-0.0002753138542175293,-0.06648308038711548,-0.14157143235206604,-0.13597992062568665,-0.3223487436771393
2026-04-30T15:16:47.004613+00:00,S005,23,50,1777562206976,1777562207040,message,1777562206814,-0.015529826283454895,0.03964650630950928,-0.0732579231262207,0.20324668288230896,-0.15560612082481384,-0.3515291213989258
2026-04-30T15:16:47.004613+00:00,S005,23,50,1777562206976,1777562207040,message,1777562206838,0.0021421313285827637,0.008101344108581543,-0.012620747089385986,0.5585842728614807,-0.20581398904323578,-0.3626749813556671
2026-04-30T15:16:47.004613+00:00,S005,23,50,1777562206976,1777562207040,message,1777562206855,0.003988325595855713,0.061498045921325684,0.01073920726776123,0.823593258857727,-0.21512149274349213,-0.3315090835094452
2026-04-30T15:16:47.004613+00:00,S005,23,50,1777562206976,1777562207040,message,1777562206875,4.3138861656188965e-05,0.04379922151565552,-0.010859601199626923,0.7783424854278564,-0.18853306770324707,-0.27692994475364685
2026-04-30T15:16:47.004613+00:00,S005,23,50,1777562206976,1777562207040,message,1777562206895,-0.014166966080665588,0.030499279499053955,0.00421595573425293,0.4267418086528778,-0.16365095973014832,-0.20684634149074554
2026-04-30T15:16:47.004613+00:00,S005,23,50,1777562206976,1777562207040,message,1777562206917,-0.03672295808792114,0.03263825178146362,-0.019128315150737762,0.1554703712463379,-0.10328128933906555,-0.1783546805381775
2026-04-30T15:16:47.004613+00:00,S005,23,50,1777562206976,1777562207040,message,1777562206939,-0.032656893134117126,0.006946086883544922,-0.06475985795259476,-0.09138628840446472,0.010222828015685081,-0.1984609067440033
2026-04-30T15:16:47.004613+00:00,S005,23,50,1777562206976,1777562207040,message,1777562206955,0.006974011659622192,-0.07221442461013794,0.005302198231220245,-0.08925549685955048,-0.02234036661684513,-0.24382849037647247
2026-04-30T15:16:47.004613+00:00,S005,23,50,1777562206976,1777562207040,message,1777562206975,0.031069844961166382,-0.04734259843826294,0.018138118088245392,0.3453817069530487,-0.07148995995521545,-0.27973103523254395
2026-04-30T15:16:48.392965+00:00,S005,24,50,1777562208228,1777562208417,background,1777562206995,0.00912696123123169,0.0024553537368774414,-0.01200413703918457,0.8409371376037598,-0.07999669760465622,-0.3207367956638336
2026-04-30T15:16:48.392965+00:00,S005,24,50,1777562208228,1777562208417,background,1777562207017,-0.015721291303634644,-0.03351092338562012,-0.04696530103683472,0.8386430740356445,-0.042164403945207596,-0.3134537935256958
2026-04-30T15:16:48.392965+00:00,S005,24,50,1777562208228,1777562208417,background,1777562207036,-0.04107224941253662,-0.04213917255401611,-0.0115622878074646,0.45288366079330444,-0.012675526551902294,-0.34314021468162537
2026-04-30T15:16:48.392965+00:00,S005,24,50,1777562208228,1777562208417,background,1777562207055,-0.028017163276672363,-0.020425736904144287,0.007186427712440491,0.33306780457496643,-0.00963788665831089,-0.38645511865615845
2026-04-30T15:16:48.392965+00:00,S005,24,50,1777562208228,1777562208417,background,1777562207075,0.027213692665100098,0.001528322696685791,0.06359869241714478,0.7175376415252686,-0.14415442943572998,-0.4004926085472107
2026-04-30T15:16:48.392965+00:00,S005,24,50,1777562208228,1777562208417,background,1777562207095,0.06362182646989822,0.0747225284576416,0.08230508863925934,1.4310518503189087,-0.25068169832229614,-0.3518061339855194
2026-04-30T15:16:48.392965+00:00,S005,24,50,1777562208228,1777562208417,background,1777562208213,0.015439145267009735,0.04816800355911255,0.018359974026679993,1.7028473615646362,-0.21920599043369293,-0.3392045795917511
2026-04-30T15:16:48.392965+00:00,S005,24,50,1777562208228,1777562208417,background,1777562208216,-0.007438279688358307,0.0312117338180542,0.04642839729785919,1.2637605667114258,-0.1695641726255417,-0.2203395664691925
2026-04-30T15:16:48.392965+00:00,S005,24,50,1777562208228,1777562208417,background,1777562208228,-0.008142814040184021,-0.036593616008758545,0.06319671869277954,0.7326897978782654,-0.14104129374027252,-0.2513980567455292
2026-04-30T15:16:48.392965+00:00,S005,24,50,1777562208228,1777562208417,background,1777562208228,0.005361884832382202,-0.07247346639633179,0.0397183895111084,0.29243966937065125,-0.11770451068878174,-0.24802669882774353
2026-04-30T15:16:48.467743+00:00,S005,25,50,1777562208256,1777562208438,background,1777562208235,0.015112467110157013,-0.013362884521484375,0.014608383178710938,0.0895824283361435,-0.08792329579591751,-0.2556030750274658
2026-04-30T15:16:48.467743+00:00,S005,25,50,1777562208256,1777562208438,background,1777562208240,0.010783538222312927,-0.023237943649291992,0.028745919466018677,-0.11412729322910309,-0.08144839107990265,-0.253032386302948
2026-04-30T15:16:48.467743+00:00,S005,25,50,1777562208256,1777562208438,background,1777562208243,0.007564455270767212,-0.050303757190704346,0.012850672006607056,-0.1542869508266449,-0.07709947973489761,-0.25625574588775635
2026-04-30T15:16:48.467743+00:00,S005,25,50,1777562208256,1777562208438,background,1777562208245,0.00760553777217865,-0.03922116756439209,-0.0027769804000854492,-0.12895257771015167,-0.08427807688713074,-0.27821189165115356
2026-04-30T15:16:48.467743+00:00,S005,25,50,1777562208256,1777562208438,background,1777562208247,0.007585309445858002,-0.03824347257614136,0.03563964366912842,-0.16271214187145233,-0.1038316860795021,-0.3069692850112915
2026-04-30T15:16:48.467743+00:00,S005,25,50,1777562208256,1777562208438,background,1777562208249,0.011783905327320099,0.007849335670471191,0.028561249375343323,-0.11510733515024185,-0.10489501059055328,-0.25907427072525024
2026-04-30T15:16:48.467743+00:00,S005,25,50,1777562208256,1777562208438,background,1777562208250,0.01907842978835106,0.09405940771102905,-0.012121319770812988,0.08101450651884079,-0.09464207291603088,-0.1901053935289383
2026-04-30T15:16:48.467743+00:00,S005,25,50,1777562208256,1777562208438,background,1777562208252,0.019099820405244827,0.10824060440063477,-0.03741002082824707,0.2339468002319336,-0.06712762266397476,-0.11363064497709274
2026-04-30T15:16:48.467743+00:00,S005,25,50,1777562208256,1777562208438,background,1777562208253,0.018065426498651505,0.10138976573944092,-0.04157835245132446,0.34036511182785034,-0.03626561537384987,-0.03625926375389099
2026-04-30T15:16:48.467743+00:00,S005,25,50,1777562208256,1777562208438,background,1777562208256,0.015795622020959854,0.064311683177948,-0.013212770223617554,0.4185086488723755,-0.03698877990245819,-0.04547619819641113
2026-04-30T15:16:48.496768+00:00,S005,26,50,1777562208275,1777562208457,background,1777562208259,0.016748599708080292,0.01923966407775879,0.015604972839355469,0.4360194802284241,-0.06617298722267151,-0.07634010165929794
2026-04-30T15:16:48.496768+00:00,S005,26,50,1777562208275,1777562208457,background,1777562208260,0.0016068331897258759,-0.011828243732452393,0.0012679100036621094,0.4305892884731293,-0.06026872247457504,-0.10207992792129517
2026-04-30T15:16:48.496768+00:00,S005,26,50,1777562208275,1777562208457,background,1777562208262,-0.003751549869775772,0.015674889087677002,0.010338902473449707,0.4195190668106079,-0.06845878064632416,-0.08531847596168518
2026-04-30T15:16:48.496768+00:00,S005,26,50,1777562208275,1777562208457,background,1777562208264,-0.0007163435220718384,0.04185706377029419,0.010761886835098267,0.4205515682697296,-0.06028828024864197,-0.05093599855899811
2026-04-30T15:16:48.496768+00:00,S005,26,50,1777562208275,1777562208457,background,1777562208265,0.008370291441679,0.035044312477111816,0.039235591888427734,0.39104267954826355,-0.058580853044986725,-0.03788597509264946
2026-04-30T15:16:48.496768+00:00,S005,26,50,1777562208275,1777562208457,background,1777562208266,0.008324462920427322,0.04386794567108154,0.015755295753479004,0.4027869701385498,-0.05361459031701088,-0.012789517641067505
2026-04-30T15:16:48.496768+00:00,S005,26,50,1777562208275,1777562208457,background,1777562208268,-0.02705441042780876,0.049341440200805664,0.030367285013198853,0.3228745460510254,0.0396498441696167,0.04178067669272423
2026-04-30T15:16:48.496768+00:00,S005,26,50,1777562208275,1777562208457,background,1777562208270,0.0013784728944301605,0.03466033935546875,0.020956039428710938,0.2903141975402832,0.02717776596546173,0.09097272157669067
2026-04-30T15:16:48.496768+00:00,S005,26,50,1777562208275,1777562208457,background,1777562208273,-0.007068544626235962,0.0054132938385009766,0.014750063419342041,0.20874343812465668,0.05962956324219704,0.09500778466463089
2026-04-30T15:16:48.496768+00:00,S005,26,50,1777562208275,1777562208457,background,1777562208275,-0.016735628247261047,-0.018005073070526123,0.03792718052864075,0.05497545376420021,0.07291911542415619,0.08787791430950165
2026-04-30T15:16:48.529001+00:00,S005,27,50,1777562208294,1777562208499,background,1777562208277,-0.011505544185638428,-0.024689197540283203,0.05166536569595337,0.03962551802396774,0.06463257223367691,0.04264817386865616
2026-04-30T15:16:48.529001+00:00,S005,27,50,1777562208294,1777562208499,background,1777562208279,-0.012895062565803528,-0.021004557609558105,0.0349767804145813,0.027630379423499107,0.0450606644153595,0.026537755504250526
2026-04-30T15:16:48.529001+00:00,S005,27,50,1777562208294,1777562208499,background,1777562208281,-0.013790249824523926,-0.03337973356246948,0.022830426692962646,-0.03293310105800629,0.03375288099050522,0.019847361370921135
2026-04-30T15:16:48.529001+00:00,S005,27,50,1777562208294,1777562208499,background,1777562208282,0.00661710649728775,-0.014064669609069824,0.04293110966682434,-0.04059607908129692,-0.013448717072606087,0.010954215191304684
2026-04-30T15:16:48.529001+00:00,S005,27,50,1777562208294,1777562208499,background,1777562208284,0.014579754322767258,0.009449303150177002,0.03163978457450867,-0.01809130236506462,-0.025864070281386375,0.01413797028362751
2026-04-30T15:16:48.529001+00:00,S005,27,50,1777562208294,1777562208499,background,1777562208285,0.017703261226415634,-0.007913708686828613,0.01805257797241211,-0.047292597591876984,-0.05003039538860321,-0.0032788896933197975
2026-04-30T15:16:48.529001+00:00,S005,27,50,1777562208294,1777562208499,background,1777562208288,0.02993766963481903,-0.020747363567352295,0.023689627647399902,0.0323532298207283,-0.12228351086378098,-0.06234689801931381
2026-04-30T15:16:48.529001+00:00,S005,27,50,1777562208294,1777562208499,background,1777562208290,0.06338253617286682,-0.005434572696685791,0.008483737707138062,0.05268140882253647,-0.18968644738197327,-0.0546780563890934
2026-04-30T15:16:48.529001+00:00,S005,27,50,1777562208294,1777562208499,background,1777562208292,0.04926029220223427,-0.0075272321701049805,-0.0012822449207305908,0.06581903994083405,-0.22301606833934784,-0.05782005563378334
2026-04-30T15:16:48.529001+00:00,S005,27,50,1777562208294,1777562208499,background,1777562208294,0.05146181583404541,0.03223615884780884,-0.014028191566467285,0.13978594541549683,-0.23822259902954102,-0.02406747080385685
2026-04-30T15:16:48.587542+00:00,S005,28,50,1777562208312,1777562208539,background,1777562208296,0.07141275703907013,0.03980308771133423,-0.013984113931655884,0.2606223523616791,-0.23862160742282867,-0.018344711512327194
2026-04-30T15:16:48.587542+00:00,S005,28,50,1777562208312,1777562208539,background,1777562208297,0.07102811336517334,-0.0007814168930053711,-0.05514839291572571,0.3420668840408325,-0.19805268943309784,-0.03588300943374634
2026-04-30T15:16:48.587542+00:00,S005,28,50,1777562208312,1777562208539,background,1777562208299,0.05521503463387489,-0.0727306604385376,-0.07130998373031616,0.250949501991272,-0.1663476675748825,-0.038659144192934036
2026-04-30T15:16:48.587542+00:00,S005,28,50,1777562208312,1777562208539,background,1777562208300,0.039755869656801224,-0.01849997043609619,-0.06325984001159668,0.27510860562324524,-0.1114463061094284,0.007642307784408331
2026-04-30T15:16:48.587542+00:00,S005,28,50,1777562208312,1777562208539,background,1777562208302,0.03435331583023071,0.026390254497528076,-0.05936679244041443,0.4936385750770569,-0.08017676323652267,0.02958638221025467
2026-04-30T15:16:48.587542+00:00,S005,28,50,1777562208312,1777562208539,background,1777562208305,0.03580966591835022,0.011147022247314453,0.006733059883117676,0.6125761866569519,-0.12998110055923462,0.010992191731929779
2026-04-30T15:16:48.587542+00:00,S005,28,50,1777562208312,1777562208539,background,1777562208307,0.009047623723745346,-0.031625568866729736,-0.02591988444328308,0.6571100354194641,-0.10351675003767014,-0.0023071556352078915
2026-04-30T15:16:48.587542+00:00,S005,28,50,1777562208312,1777562208539,background,1777562208309,-0.014431118965148926,-0.04842197895050049,-0.05472975969314575,0.6069656610488892,-0.060367606580257416,-0.029453182592988014
2026-04-30T15:16:48.587542+00:00,S005,28,50,1777562208312,1777562208539,background,1777562208310,-0.009005144238471985,-0.07821804285049438,-0.0018925070762634277,0.30410829186439514,-0.052206460386514664,-0.040081482380628586
2026-04-30T15:16:48.587542+00:00,S005,28,50,1777562208312,1777562208539,background,1777562208312,-0.012179214507341385,-0.044988930225372314,0.01574254035949707,0.053799934685230255,-0.04080779105424881,-0.06053253635764122
2026-04-30T15:16:48.617208+00:00,S005,29,50,1777562208330,1777562208563,background,1777562208314,-0.023915350437164307,-0.013101518154144287,0.030860185623168945,0.023882245644927025,-0.04403523728251457,-0.10775566101074219
2026-04-30T15:16:48.617208+00:00,S005,29,50,1777562208330,1777562208563,background,1777562208316,-0.032686229795217514,-0.044940948486328125,0.0017785429954528809,0.036515217274427414,-0.04762361943721771,-0.08959609270095825
2026-04-30T15:16:48.617208+00:00,S005,29,50,1777562208330,1777562208563,background,1777562208317,-0.0440400093793869,0.016995728015899658,0.03332608938217163,0.015879446640610695,-0.06928174197673798,-0.07407401502132416
2026-04-30T15:16:48.617208+00:00,S005,29,50,1777562208330,1777562208563,background,1777562208319,-0.04717731475830078,0.021898508071899414,0.017785876989364624,0.02218261919915676,-0.0966382622718811,-0.08054640889167786
2026-04-30T15:16:48.617208+00:00,S005,29,50,1777562208330,1777562208563,background,1777562208320,-0.05129886046051979,-0.0026470422744750977,-0.020374417304992676,0.16788068413734436,-0.1199241355061531,-0.1019207239151001
2026-04-30T15:16:48.617208+00:00,S005,29,50,1777562208330,1777562208563,background,1777562208323,-0.0300455205142498,-0.015006721019744873,-0.009162187576293945,0.5801348686218262,-0.15545640885829926,-0.14371398091316223
2026-04-30T15:16:48.617208+00:00,S005,29,50,1777562208330,1777562208563,background,1777562208325,-0.014956193044781685,-0.0016995072364807129,-0.0028350353240966797,0.527846097946167,-0.08601628243923187,-0.14316263794898987
2026-04-30T15:16:48.617208+00:00,S005,29,50,1777562208330,1777562208563,background,1777562208327,-0.027179231867194176,-0.04458177089691162,-0.0525091290473938,0.364034503698349,-0.05159739777445793,-0.15555663406848907
2026-04-30T15:16:48.617208+00:00,S005,29,50,1777562208330,1777562208563,background,1777562208329,-0.01608290895819664,0.014292299747467041,-0.10664063692092896,0.28505605459213257,0.09652495384216309,-0.03852641209959984
2026-04-30T15:16:48.617208+00:00,S005,29,50,1777562208330,1777562208563,background,1777562208330,-0.012826190330088139,0.0716787576675415,-0.02734699845314026,0.4039888381958008,0.18247635662555695,-0.030357804149389267
2026-04-30T15:16:49.013129+00:00,S005,30,50,1777562208381,1777562209015,background,1777562208332,0.018535176292061806,-0.026119470596313477,0.0091627836227417,0.7791230082511902,0.17506180703639984,0.027672048658132553
2026-04-30T15:16:49.013129+00:00,S005,30,50,1777562208381,1777562209015,background,1777562208334,0.03608090430498123,0.07626098394393921,0.052133798599243164,1.1807913780212402,0.1472557783126831,0.027308473363518715
2026-04-30T15:16:49.013129+00:00,S005,30,50,1777562208381,1777562209015,background,1777562208335,-0.020757202059030533,-0.0045588016510009766,-0.06524938344955444,1.3469332456588745,0.2339201718568802,-0.04832135885953903
2026-04-30T15:16:49.013129+00:00,S005,30,50,1777562208381,1777562209015,background,1777562208337,-0.09549609571695328,-0.1289818286895752,-0.0181695818901062,1.0680129528045654,0.36702632904052734,-0.13628733158111572
2026-04-30T15:16:49.013129+00:00,S005,30,50,1777562208381,1777562209015,background,1777562208340,-0.08813485503196716,-0.14743560552597046,0.04076671600341797,0.5398702621459961,0.40146568417549133,-0.17294083535671234
2026-04-30T15:16:49.013129+00:00,S005,30,50,1777562208381,1777562209015,background,1777562208342,-0.03480260819196701,-0.18380898237228394,0.2759441137313843,-0.7208065390586853,0.25812241435050964,-0.25028884410858154
2026-04-30T15:16:49.013129+00:00,S005,30,50,1777562208381,1777562209015,background,1777562208343,-0.02914748713374138,-0.15560227632522583,0.14392369985580444,-0.25639787316322327,0.33777353167533875,-0.2035052478313446
2026-04-30T15:16:49.013129+00:00,S005,30,50,1777562208381,1777562209015,background,1777562208345,-0.016648339107632637,0.27909743785858154,-0.0459824800491333,-0.07503794133663177,0.3782951235771179,-0.028813436627388
2026-04-30T15:16:49.013129+00:00,S005,30,50,1777562208381,1777562209015,background,1777562208362,0.00633048452436924,0.22019153833389282,-0.04718422889709473,0.18648606538772583,0.2927938401699066,0.004226004704833031
2026-04-30T15:16:49.013129+00:00,S005,30,50,1777562208381,1777562209015,background,1777562208381,0.07176929712295532,0.05342286825180054,0.022214829921722412,0.2748076617717743,0.008806939236819744,-0.07557966560125351
2026-04-30T15:16:49.569315+00:00,S005,31,50,1777562209468,1777562209586,background,1777562208401,0.04503289610147476,0.006544589996337891,-0.015537440776824951,0.432179719209671,-0.15878483653068542,-0.1304638534784317
2026-04-30T15:16:49.569315+00:00,S005,31,50,1777562209468,1777562209586,background,1777562208422,0.04837022349238396,0.11135721206665039,-0.03956413269042969,0.5693378448486328,-0.2993297874927521,-0.15069301426410675
2026-04-30T15:16:49.569315+00:00,S005,31,50,1777562209468,1777562209586,background,1777562208442,0.025027243420481682,-0.04882556200027466,-0.03071838617324829,0.2471289038658142,-0.3212128281593323,-0.18361994624137878
2026-04-30T15:16:49.569315+00:00,S005,31,50,1777562209468,1777562209586,background,1777562208462,-0.008865432813763618,-0.0990036129951477,-0.04859459400177002,-0.08519817143678665,-0.2570163905620575,-0.15392693877220154
2026-04-30T15:16:49.569315+00:00,S005,31,50,1777562209468,1777562209586,background,1777562209437,-0.007781765423715115,-0.028151392936706543,-0.02523982524871826,-0.28868845105171204,-0.20016126334667206,-0.13601338863372803
2026-04-30T15:16:49.569315+00:00,S005,31,50,1777562209468,1777562209586,background,1777562209453,-0.0084616644307971,-0.04759854078292847,-0.02173757553100586,-0.2377171367406845,-0.18929237127304077,-0.13160265982151031
2026-04-30T15:16:49.569315+00:00,S005,31,50,1777562209468,1777562209586,background,1777562209454,0.016928773373365402,0.0741574764251709,0.024839937686920166,0.10540533065795898,-0.2519034445285797,-0.16303052008152008
2026-04-30T15:16:49.569315+00:00,S005,31,50,1777562209468,1777562209586,background,1777562209464,0.016197245568037033,0.050207316875457764,0.01569342613220215,0.3115747570991516,-0.2791496515274048,-0.1638937145471573
2026-04-30T15:16:49.569315+00:00,S005,31,50,1777562209468,1777562209586,background,1777562209466,0.0018477682024240494,-0.0156593918800354,0.007971405982971191,0.28396281599998474,-0.2529587149620056,-0.12661206722259521
2026-04-30T15:16:49.569315+00:00,S005,31,50,1777562209468,1777562209586,background,1777562209468,-0.013201288878917694,-0.040602922439575195,-0.01804649829864502,0.06965266168117523,-0.17413374781608582,-0.0939830094575882
2026-04-30T15:16:49.612200+00:00,S005,32,50,1777562209486,1777562209609,background,1777562209469,-0.010697079822421074,-0.05809694528579712,-0.02732086181640625,-0.15029701590538025,-0.1158827617764473,-0.06157276779413223
2026-04-30T15:16:49.612200+00:00,S005,32,50,1777562209486,1777562209609,background,1777562209470,-0.0028352979570627213,-0.02812039852142334,-0.02169215679168701,-0.15986602008342743,-0.10723817348480225,-0.04494792968034744
2026-04-30T15:16:49.612200+00:00,S005,32,50,1777562209486,1777562209609,background,1777562209472,-0.00681917741894722,0.0369185209274292,0.008120238780975342,0.07096640020608902,-0.08573607355356216,-0.046615976840257645
2026-04-30T15:16:49.612200+00:00,S005,32,50,1777562209486,1777562209609,background,1777562209476,-0.004535011947154999,0.07864880561828613,0.039095401763916016,0.442339152097702,-0.09006599336862564,-0.06440434604883194
2026-04-30T15:16:49.612200+00:00,S005,32,50,1777562209486,1777562209609,background,1777562209478,0.013874184340238571,0.03687644004821777,0.025076866149902344,0.6427425146102905,-0.12575079500675201,-0.06354009360074997
2026-04-30T15:16:49.612200+00:00,S005,32,50,1777562209486,1777562209609,background,1777562209480,0.006568539887666702,0.019315063953399658,0.01271355152130127,0.7188048362731934,-0.1252439171075821,-0.061420705169439316
2026-04-30T15:16:49.612200+00:00,S005,32,50,1777562209486,1777562209609,background,1777562209481,0.008761715143918991,-0.008990645408630371,-0.004802048206329346,0.665249228477478,-0.13463863730430603,-0.05426585674285889
2026-04-30T15:16:49.612200+00:00,S005,32,50,1777562209486,1777562209609,background,1777562209483,-0.003005705773830414,0.005720913410186768,9.03010368347168e-05,0.5841559767723083,-0.0983305424451828,-0.04430600255727768
2026-04-30T15:16:49.612200+00:00,S005,32,50,1777562209486,1777562209609,background,1777562209484,-0.009086903184652328,-0.03659260272979736,-0.011045634746551514,0.40332701802253723,-0.06230219826102257,-0.020388368517160416
2026-04-30T15:16:49.612200+00:00,S005,32,50,1777562209486,1777562209609,background,1777562209486,-0.01225234568119049,-0.03554117679595947,-0.006972372531890869,0.30695176124572754,-0.02060653455555439,-0.007786236237734556
2026-04-30T15:16:49.633680+00:00,S005,33,50,1777562209504,1777562209624,background,1777562209488,-0.00178440660238266,-0.035134315490722656,-0.007930457592010498,0.20392125844955444,-0.020391501486301422,-0.004100581165403128
2026-04-30T15:16:49.633680+00:00,S005,33,50,1777562209504,1777562209624,background,1777562209491,-0.0026202648878097534,-0.02668893337249756,-0.007573306560516357,0.07865361869335175,-0.0019211871549487114,0.006894865073263645
2026-04-30T15:16:49.633680+00:00,S005,33,50,1777562209504,1777562209624,background,1777562209493,0.0011757761240005493,-0.04245114326477051,-0.017115414142608643,-0.09478075802326202,-0.008243531920015812,0.013732850551605225
2026-04-30T15:16:49.633680+00:00,S005,33,50,1777562209504,1777562209624,background,1777562209495,0.0022892579436302185,-0.023606598377227783,-0.019660890102386475,-0.1960570365190506,-0.004868583753705025,0.007833469659090042
2026-04-30T15:16:49.633680+00:00,S005,33,50,1777562209504,1777562209624,background,1777562209496,3.420189023017883e-05,0.0010034441947937012,-0.006050288677215576,-0.17351257801055908,-0.008770190179347992,0.0012623858638107777
2026-04-30T15:16:49.633680+00:00,S005,33,50,1777562209504,1777562209624,background,1777562209498,0.0057280585169792175,0.027673780918121338,0.00593036413192749,-0.05763418599963188,-0.02029547654092312,-0.015635371208190918
2026-04-30T15:16:49.633680+00:00,S005,33,50,1777562209504,1777562209624,background,1777562209499,0.0030659474432468414,0.0237119197845459,0.0034673213958740234,0.007829776033759117,-0.022759320214390755,-0.01789383962750435
2026-04-30T15:16:49.633680+00:00,S005,33,50,1777562209504,1777562209624,background,1777562209501,0.001896444708108902,-0.007470965385437012,0.004992425441741943,0.0037213191390037537,-0.024640917778015137,-0.03757486492395401
2026-04-30T15:16:49.633680+00:00,S005,33,50,1777562209504,1777562209624,background,1777562209502,0.001207195222377777,-0.010458707809448242,0.007204949855804443,0.006019892171025276,-0.010026441887021065,-0.04410914331674576
2026-04-30T15:16:49.633680+00:00,S005,33,50,1777562209504,1777562209624,background,1777562209504,-0.001628771424293518,0.023013770580291748,0.007680773735046387,0.03613279014825821,-0.0028345370665192604,-0.03854303061962128
2026-04-30T15:16:49.721848+00:00,S005,34,50,1777562209524,1777562209635,background,1777562209508,0.0009643770754337311,0.011202096939086914,0.007893741130828857,0.08014818280935287,-0.0018371453043073416,-0.041377484798431396
2026-04-30T15:16:49.721848+00:00,S005,34,50,1777562209524,1777562209635,background,1777562209510,-0.0033553317189216614,0.011223554611206055,0.0115090012550354,0.14439216256141663,0.014665740542113781,-0.049457624554634094
2026-04-30T15:16:49.721848+00:00,S005,34,50,1777562209524,1777562209635,background,1777562209511,-0.0007010474801063538,0.0032073259353637695,0.004204869270324707,0.19562336802482605,0.010546895675361156,-0.042699530720710754
2026-04-30T15:16:49.721848+00:00,S005,34,50,1777562209524,1777562209635,background,1777562209513,0.0018510855734348297,0.028592288494110107,0.012482523918151855,0.33219242095947266,0.01239395048469305,-0.04211326315999031
2026-04-30T15:16:49.721848+00:00,S005,34,50,1777562209524,1777562209635,background,1777562209514,0.001666571944952011,0.01310056447982788,0.008032441139221191,0.39245548844337463,0.004011574666947126,-0.025839487090706825
2026-04-30T15:16:49.721848+00:00,S005,34,50,1777562209524,1777562209635,background,1777562209516,-0.006424512714147568,-0.009001612663269043,0.0025142431259155273,0.33034658432006836,0.02988460287451744,0.012109973467886448
2026-04-30T15:16:49.721848+00:00,S005,34,50,1777562209524,1777562209635,background,1777562209518,-0.010490577667951584,-0.03903096914291382,-0.011460542678833008,0.2298055738210678,0.05712775141000748,0.03603463992476463
2026-04-30T15:16:49.721848+00:00,S005,34,50,1777562209524,1777562209635,background,1777562209519,-0.00028630346059799194,-0.008007645606994629,-0.01581287384033203,0.17954295873641968,0.059102293103933334,0.03585141524672508
2026-04-30T15:16:49.721848+00:00,S005,34,50,1777562209524,1777562209635,background,1777562209521,0.0027703046798706055,-0.023601830005645752,-0.00956946611404419,0.15014830231666565,0.0404350571334362,0.024150816723704338
2026-04-30T15:16:49.721848+00:00,S005,34,50,1777562209524,1777562209635,background,1777562209524,0.009601600468158722,0.020120441913604736,-0.00651782751083374,0.19726574420928955,0.008446651510894299,0.005052809603512287
2026-04-30T15:16:49.744491+00:00,S005,35,50,1777562209543,1777562209650,background,1777562209527,0.00955139473080635,-0.011242270469665527,0.0014606714248657227,0.23252679407596588,-0.007017145864665508,-0.010418877936899662
2026-04-30T15:16:49.744491+00:00,S005,35,50,1777562209543,1777562209650,background,1777562209528,0.004410311579704285,-0.013259530067443848,-0.003921389579772949,0.16285237669944763,-0.0030465247109532356,0.0010114094475284219
2026-04-30T15:16:49.744491+00:00,S005,35,50,1777562209543,1777562209650,background,1777562209530,-0.005504321306943893,-0.03483706712722778,-0.01778322458267212,0.08285555243492126,0.005825947970151901,0.010717673227190971
2026-04-30T15:16:49.744491+00:00,S005,35,50,1777562209543,1777562209650,background,1777562209532,0.004013970494270325,-0.001404106616973877,-0.003892064094543457,0.04479711502790451,-0.0021150652319192886,0.008100584149360657
2026-04-30T15:16:49.744491+00:00,S005,35,50,1777562209543,1777562209650,background,1777562209533,0.001530475914478302,-0.024859309196472168,-0.0073220133781433105,0.022369302809238434,-0.0074325986206531525,0.00667819008231163
2026-04-30T15:16:49.744491+00:00,S005,35,50,1777562209543,1777562209650,background,1777562209535,0.0029024966061115265,-0.016515076160430908,-0.006350696086883545,0.030815519392490387,-0.021286895498633385,0.004926628898829222
2026-04-30T15:16:49.744491+00:00,S005,35,50,1777562209543,1777562209650,background,1777562209536,0.0015213489532470703,-0.014178037643432617,-0.013427436351776123,-0.04506006836891174,-0.022257579490542412,0.01791747659444809
2026-04-30T15:16:49.744491+00:00,S005,35,50,1777562209543,1777562209650,background,1777562209538,-0.005526859313249588,-0.04259800910949707,-0.017592668533325195,-0.19705785810947418,-0.010126576758921146,0.01686696521937847
2026-04-30T15:16:49.744491+00:00,S005,35,50,1777562209543,1777562209650,background,1777562209541,0.004163071513175964,-0.018434107303619385,-0.01415330171585083,-0.2882002592086792,-0.014686554670333862,0.005657453555613756
2026-04-30T15:16:49.744491+00:00,S005,35,50,1777562209543,1777562209650,background,1777562209543,0.00488319993019104,-0.013381123542785645,-0.00909954309463501,-0.25885945558547974,-0.03202449530363083,-0.022653065621852875
2026-04-30T15:16:49.769668+00:00,S005,36,50,1777562209589,1777562209720,background,1777562209545,0.008162181824445724,0.018882453441619873,-0.002472400665283203,-0.16775935888290405,-0.04284168407320976,-0.04068858176469803
2026-04-30T15:16:49.769668+00:00,S005,36,50,1777562209589,1777562209720,background,1777562209546,-0.004789967089891434,0.022792339324951172,0.006037473678588867,-0.07657352089881897,-0.03174246475100517,-0.03652067855000496
2026-04-30T15:16:49.769668+00:00,S005,36,50,1777562209589,1777562209720,background,1777562209548,-0.004207879304885864,0.013732314109802246,0.0058290958404541016,-0.021539565175771713,-0.011367952451109886,-0.024554509669542313
2026-04-30T15:16:49.769668+00:00,S005,36,50,1777562209589,1777562209720,background,1777562209550,-0.008493330329656601,0.008763253688812256,0.006226778030395508,0.041529953479766846,0.0007901391945779324,-0.004842644557356834
2026-04-30T15:16:49.769668+00:00,S005,36,50,1777562209589,1777562209720,background,1777562209551,-0.005652934312820435,0.00033420324325561523,0.01037454605102539,0.1147485077381134,0.007973560132086277,0.01368011999875307
2026-04-30T15:16:49.769668+00:00,S005,36,50,1777562209589,1777562209720,background,1777562209553,-0.00039086490869522095,0.02023106813430786,0.00897514820098877,0.20391300320625305,0.004459252581000328,0.0017914492636919022
2026-04-30T15:16:49.769668+00:00,S005,36,50,1777562209589,1777562209720,background,1777562209554,0.008810162544250488,0.03134453296661377,0.011067390441894531,0.2874521017074585,-0.022951791062951088,-0.03073757141828537
2026-04-30T15:16:49.769668+00:00,S005,36,50,1777562209589,1777562209720,background,1777562209557,0.009988866746425629,0.010921835899353027,-0.00012481212615966797,0.3127571940422058,-0.0380791537463665,-0.05353918299078941
2026-04-30T15:16:49.769668+00:00,S005,36,50,1777562209589,1777562209720,background,1777562209567,-0.000730857253074646,-0.0030611157417297363,-0.0014056563377380371,0.2989550828933716,-0.03263850510120392,-0.04448273405432701
2026-04-30T15:16:49.769668+00:00,S005,36,50,1777562209589,1777562209720,background,1777562209589,-0.0019228681921958923,0.010081470012664795,0.006476879119873047,0.3499290645122528,-0.02334688790142536,-0.020353266969323158
2026-04-30T15:16:49.881391+00:00,S005,37,50,1777562209788,1777562209897,background,1777562209609,-0.0052091628313064575,-0.014397263526916504,0.0006088614463806152,0.33763912320137024,-0.02225586771965027,0.01612069457769394
2026-04-30T15:16:49.881391+00:00,S005,37,50,1777562209788,1777562209897,background,1777562209628,-0.00841037929058075,-0.007947862148284912,-0.0017386674880981445,0.34542539715766907,-0.018999658524990082,0.04023817181587219
2026-04-30T15:16:49.881391+00:00,S005,37,50,1777562209788,1777562209897,background,1777562209647,-0.0024025477468967438,-0.026432693004608154,-0.006446957588195801,0.26674601435661316,-0.00290267588570714,0.04638000950217247
2026-04-30T15:16:49.881391+00:00,S005,37,50,1777562209788,1777562209897,background,1777562209667,-0.008104223757982254,-0.029089391231536865,-0.015098869800567627,0.19926178455352783,0.022984161972999573,0.03928183391690254
2026-04-30T15:16:49.881391+00:00,S005,37,50,1777562209788,1777562209897,background,1777562209687,0.003515426069498062,-0.033899664878845215,-0.007425546646118164,0.12358753383159637,0.013610177673399448,0.02754778414964676
2026-04-30T15:16:49.881391+00:00,S005,37,50,1777562209788,1777562209897,background,1777562209711,-0.0024902448058128357,-0.012799263000488281,-0.005585610866546631,0.10991273820400238,0.01988675445318222,0.020592832937836647
2026-04-30T15:16:49.881391+00:00,S005,37,50,1777562209788,1777562209897,background,1777562209728,-0.001980874687433243,0.010013937950134277,0.0005902647972106934,0.11006959527730942,0.02470068261027336,0.020378608256578445
2026-04-30T15:16:49.881391+00:00,S005,37,50,1777562209788,1777562209897,background,1777562209748,-0.0025049224495887756,-0.03177344799041748,-0.003140270709991455,0.05856086313724518,0.03172457963228226,0.02512446790933609
2026-04-30T15:16:49.881391+00:00,S005,37,50,1777562209788,1777562209897,background,1777562209768,-0.0014297813177108765,0.006665170192718506,-0.008532226085662842,0.026938224211335182,0.03508206829428673,0.014506818726658821
2026-04-30T15:16:49.881391+00:00,S005,37,50,1777562209788,1777562209897,background,1777562209788,0.0011386163532733917,-0.026467621326446533,-0.006842136383056641,-0.07613516598939896,0.03528713062405586,0.015239240601658821
2026-04-30T15:16:50.058654+00:00,S005,38,50,1777562209989,1777562210098,background,1777562209808,0.0006780289113521576,-0.03926539421081543,-0.005093514919281006,-0.48130449652671814,0.009016377851366997,0.004217269830405712
2026-04-30T15:16:50.058654+00:00,S005,38,50,1777562209989,1777562210098,background,1777562209828,-0.009788502007722855,-0.09608155488967896,-0.025436758995056152,-0.9397580623626709,-0.022896243259310722,0.08319176733493805
2026-04-30T15:16:50.058654+00:00,S005,38,50,1777562209989,1777562210098,background,1777562209848,-0.03725963085889816,-0.10677355527877808,-0.04124939441680908,-1.2029253244400024,0.1243094876408577,0.1884603500366211
2026-04-30T15:16:50.058654+00:00,S005,38,50,1777562209989,1777562210098,background,1777562209868,-0.026392478495836258,-0.07246661186218262,-0.03154468536376953,-1.1476432085037231,0.23674742877483368,0.23909534513950348
2026-04-30T15:16:50.058654+00:00,S005,38,50,1777562209989,1777562210098,background,1777562209888,-0.005956932902336121,-0.001278221607208252,-0.0007850527763366699,-0.9915052056312561,0.24780026078224182,0.2500332295894623
2026-04-30T15:16:50.058654+00:00,S005,38,50,1777562209989,1777562210098,background,1777562209908,0.005784733220934868,0.07670414447784424,-0.00561678409576416,-0.6225958466529846,0.19098055362701416,0.18253853917121887
2026-04-30T15:16:50.058654+00:00,S005,38,50,1777562209989,1777562210098,background,1777562209929,0.041204050183296204,0.13380825519561768,0.02441251277923584,-0.14065290987491608,0.04587121680378914,0.06421396881341934
2026-04-30T15:16:50.058654+00:00,S005,38,50,1777562209989,1777562210098,background,1777562209949,0.03925473988056183,0.08108288049697876,0.025725901126861572,0.25795361399650574,-0.0823550820350647,-0.060760289430618286
2026-04-30T15:16:50.058654+00:00,S005,38,50,1777562209989,1777562210098,background,1777562209969,0.03967496380209923,0.04021501541137695,0.021642088890075684,0.4288440942764282,-0.14336197078227997,-0.17104344069957733
2026-04-30T15:16:50.058654+00:00,S005,38,50,1777562209989,1777562210098,background,1777562209989,0.003456365317106247,-0.004113435745239258,0.000708162784576416,0.4422778785228729,-0.10192006826400757,-0.18140362203121185
2026-04-30T15:16:50.310590+00:00,S005,39,50,1777562210190,1777562210328,background,1777562210009,-0.0096009261906147,-0.004400730133056641,0.016123831272125244,0.4817427396774292,-0.06868740171194077,-0.13357192277908325
2026-04-30T15:16:50.310590+00:00,S005,39,50,1777562210190,1777562210328,background,1777562210029,-0.01571926474571228,0.01207590103149414,0.013775169849395752,0.5520256757736206,-0.026189088821411133,-0.06734564900398254
2026-04-30T15:16:50.310590+00:00,S005,39,50,1777562210190,1777562210328,background,1777562210049,-0.010001197457313538,0.005904972553253174,0.008838295936584473,0.5648027062416077,-0.009543153457343578,-0.031185833737254143
2026-04-30T15:16:50.310590+00:00,S005,39,50,1777562210190,1777562210328,background,1777562210069,0.002840932458639145,0.013549089431762695,0.0016627907752990723,0.5405346751213074,-0.010853201150894165,-0.03091413900256157
2026-04-30T15:16:50.310590+00:00,S005,39,50,1777562210190,1777562210328,background,1777562210089,0.005443323403596878,-0.0002853870391845703,0.0019666552543640137,0.49386730790138245,-0.01898394711315632,-0.050146155059337616
2026-04-30T15:16:50.310590+00:00,S005,39,50,1777562210190,1777562210328,background,1777562210109,0.0044126734137535095,-0.02000981569290161,-0.005371689796447754,0.40144044160842896,-0.0367627888917923,-0.06308864057064056
2026-04-30T15:16:50.310590+00:00,S005,39,50,1777562210190,1777562210328,background,1777562210130,0.003266178071498871,-0.017239809036254883,-0.00408935546875,0.28579163551330566,-0.04121552035212517,-0.06234380975365639
2026-04-30T15:16:50.310590+00:00,S005,39,50,1777562210190,1777562210328,background,1777562210150,-0.0015654191374778748,-0.016963541507720947,-0.005748629570007324,0.18712815642356873,-0.03452558442950249,-0.04059899225831032
2026-04-30T15:16:50.310590+00:00,S005,39,50,1777562210190,1777562210328,background,1777562210170,-0.0034354887902736664,-0.017630040645599365,-0.006546139717102051,0.12458409368991852,-0.037631548941135406,-0.01688934676349163
2026-04-30T15:16:50.310590+00:00,S005,39,50,1777562210190,1777562210328,background,1777562210190,-0.002838980406522751,-0.01913607120513916,-0.0002626776695251465,0.10596539825201035,-0.03710158169269562,0.0076486459001898766
2026-04-30T15:16:50.445085+00:00,S005,40,50,1777562210391,1777562210484,background,1777562210210,-0.00434701144695282,-0.0054572224617004395,-0.00015485286712646484,0.04788718372583389,-0.01804267056286335,0.03441527858376503
2026-04-30T15:16:50.445085+00:00,S005,40,50,1777562210391,1777562210484,background,1777562210230,-0.0013259798288345337,-0.021668851375579834,-0.006469547748565674,-0.015582870692014694,-0.013546493835747242,0.03780846670269966
2026-04-30T15:16:50.445085+00:00,S005,40,50,1777562210391,1777562210484,background,1777562210250,0.0008741170167922974,-0.030240893363952637,-0.005710005760192871,-0.09305742383003235,-0.007433435879647732,0.03358544036746025
2026-04-30T15:16:50.445085+00:00,S005,40,50,1777562210391,1777562210484,background,1777562210270,-0.002892483025789261,-0.030539095401763916,-0.009008705615997314,-0.18621718883514404,0.017769884318113327,0.03521966189146042
2026-04-30T15:16:50.445085+00:00,S005,40,50,1777562210391,1777562210484,background,1777562210290,0.0012415796518325806,-0.0054318904876708984,-0.0012094974517822266,-0.2074417918920517,0.022469716146588326,0.022176669910550117
2026-04-30T15:16:50.445085+00:00,S005,40,50,1777562210391,1777562210484,background,1777562210311,0.00372164323925972,-0.005263268947601318,0.0011835694313049316,-0.18190740048885345,0.019583458080887794,0.02002701908349991
2026-04-30T15:16:50.445085+00:00,S005,40,50,1777562210391,1777562210484,background,1777562210332,0.00014178454875946045,0.004815340042114258,0.006648898124694824,-0.2023029625415802,0.03137383982539177,0.0360243059694767
2026-04-30T15:16:50.445085+00:00,S005,40,50,1777562210391,1777562210484,background,1777562210351,-0.0017047710716724396,-0.019972383975982666,-0.003148794174194336,-0.29399240016937256,0.04620053246617317,0.047377098351716995
2026-04-30T15:16:50.445085+00:00,S005,40,50,1777562210391,1777562210484,background,1777562210371,-0.0004319995641708374,-0.022225797176361084,-0.0032924413681030273,-0.40757593512535095,0.04846064746379852,0.05725923553109169
2026-04-30T15:16:50.445085+00:00,S005,40,50,1777562210391,1777562210484,background,1777562210391,-0.0016367696225643158,-0.009899437427520752,-0.00731736421585083,-0.4951377511024475,0.05191769450902939,0.06343904882669449
2026-04-30T15:16:50.668023+00:00,S005,41,50,1777562210592,1777562210689,background,1777562210411,0.00582423061132431,0.009431123733520508,0.001456916332244873,-0.4640570878982544,0.051277510821819305,0.048264726996421814
2026-04-30T15:16:50.668023+00:00,S005,41,50,1777562210592,1777562210689,background,1777562210431,0.007498256862163544,0.007144331932067871,-0.0006281137466430664,-0.4137212038040161,0.029828296974301338,0.021415216848254204
2026-04-30T15:16:50.668023+00:00,S005,41,50,1777562210592,1777562210689,background,1777562210451,0.00931469351053238,0.052041471004486084,0.02485835552215576,-0.23965272307395935,0.0035527499858289957,-0.019480178132653236
2026-04-30T15:16:50.668023+00:00,S005,41,50,1777562210592,1777562210689,background,1777562210471,0.009618129581212997,0.05358690023422241,0.029413580894470215,-0.003439921885728836,-0.01102383341640234,-0.05601022392511368
2026-04-30T15:16:50.668023+00:00,S005,41,50,1777562210592,1777562210689,background,1777562210491,0.006806578487157822,0.05830061435699463,0.0280759334564209,0.18125003576278687,-0.020674673840403557,-0.06671810150146484
2026-04-30T15:16:50.668023+00:00,S005,41,50,1777562210592,1777562210689,background,1777562210512,0.004295524209737778,0.03938490152359009,0.024514436721801758,0.29329320788383484,-0.024791348725557327,-0.07239820063114166
2026-04-30T15:16:50.668023+00:00,S005,41,50,1777562210592,1777562210689,background,1777562210532,0.003834519535303116,0.02501899003982544,0.01651662588119507,0.3674044609069824,-0.030551424250006676,-0.06942600756883621
2026-04-30T15:16:50.668023+00:00,S005,41,50,1777562210592,1777562210689,background,1777562210552,0.006971254944801331,0.030957162380218506,0.02256566286087036,0.45774152874946594,-0.038606610149145126,-0.07731252908706665
2026-04-30T15:16:50.668023+00:00,S005,41,50,1777562210592,1777562210689,background,1777562210572,0.0026946328580379486,0.01259225606918335,0.018126249313354492,0.5099706649780273,-0.040652528405189514,-0.06088034808635712
2026-04-30T15:16:50.668023+00:00,S005,41,50,1777562210592,1777562210689,background,1777562210592,0.000547509640455246,0.012527883052825928,0.014286279678344727,0.4955384433269501,-0.024199670180678368,-0.03456315025687218
2026-04-30T15:16:50.898764+00:00,S005,42,50,1777562210793,1777562210935,background,1777562210612,-0.001344095915555954,-0.03441286087036133,0.006785392761230469,0.3587888479232788,-0.0037793125957250595,-0.005976725369691849
2026-04-30T15:16:50.898764+00:00,S005,42,50,1777562210793,1777562210935,background,1777562210633,-0.002106212079524994,-0.03215986490249634,-0.003857851028442383,0.19009679555892944,0.002654275856912136,0.016073182225227356
2026-04-30T15:16:50.898764+00:00,S005,42,50,1777562210793,1777562210935,background,1777562210652,0.0007712692022323608,-0.02998894453048706,0.003914892673492432,0.061007242649793625,0.013409907929599285,0.022577794268727303
2026-04-30T15:16:50.898764+00:00,S005,42,50,1777562210793,1777562210935,background,1777562210672,0.00013297796249389648,-0.024860739707946777,0.001961648464202881,0.0021684281527996063,0.025633588433265686,0.030506398528814316
2026-04-30T15:16:50.898764+00:00,S005,42,50,1777562210793,1777562210935,background,1777562210692,0.004903275519609451,-0.019352436065673828,0.0025191307067871094,-0.05786987394094467,0.016829369589686394,0.04380137845873833
2026-04-30T15:16:50.898764+00:00,S005,42,50,1777562210793,1777562210935,background,1777562210712,0.00013248249888420105,-0.0056424736976623535,0.00014084577560424805,-0.16528581082820892,0.018393557518720627,0.04560369998216629
2026-04-30T15:16:50.898764+00:00,S005,42,50,1777562210793,1777562210935,background,1777562210732,-0.0005838312208652496,-0.03230249881744385,-0.0025429725646972656,-0.2756062150001526,0.023521628230810165,0.04780149832367897
2026-04-30T15:16:50.898764+00:00,S005,42,50,1777562210793,1777562210935,background,1777562210752,0.004151850938796997,-0.009007453918457031,-0.004402458667755127,-0.3662508726119995,0.013058485463261604,0.03628913313150406
2026-04-30T15:16:50.898764+00:00,S005,42,50,1777562210793,1777562210935,background,1777562210773,0.009609706699848175,0.03377056121826172,0.003498256206512451,-0.302960604429245,-0.001673056511208415,0.015762925148010254
2026-04-30T15:16:50.898764+00:00,S005,42,50,1777562210793,1777562210935,background,1777562210793,0.010898642241954803,0.049721479415893555,0.04183328151702881,-0.0677613839507103,-0.018994713202118874,-0.027786362916231155
2026-04-30T15:16:51.100678+00:00,S005,43,50,1777562210994,1777562211136,background,1777562210813,0.006538506597280502,0.035341858863830566,0.016957521438598633,0.04002952575683594,-0.01144461240619421,-0.03394763916730881
2026-04-30T15:16:51.100678+00:00,S005,43,50,1777562210994,1777562211136,background,1777562210833,0.004912909120321274,0.033216238021850586,0.01657259464263916,0.08190293610095978,-0.008382776752114296,-0.03704111650586128
2026-04-30T15:16:51.100678+00:00,S005,43,50,1777562210994,1777562211136,background,1777562210853,0.0024711713194847107,0.014912307262420654,0.013759493827819824,0.08512242883443832,-0.0025042672641575336,-0.032052747905254364
2026-04-30T15:16:51.100678+00:00,S005,43,50,1777562210994,1777562211136,background,1777562210873,0.002517450600862503,-0.00045812129974365234,0.012424349784851074,0.052030257880687714,-0.001426714239642024,-0.024547532200813293
2026-04-30T15:16:51.100678+00:00,S005,43,50,1777562210994,1777562211136,background,1777562210893,-0.0035409964621067047,-0.006693840026855469,0.01131826639175415,-0.099799744784832,-0.011215352453291416,-0.005149973556399345
2026-04-30T15:16:51.100678+00:00,S005,43,50,1777562210994,1777562211136,background,1777562210913,-0.0014852844178676605,-0.056162893772125244,-0.004367351531982422,-0.4699106812477112,0.01978163607418537,0.050726715475320816
2026-04-30T15:16:51.100678+00:00,S005,43,50,1777562210994,1777562211136,background,1777562210933,-0.0280996635556221,-0.08800685405731201,-0.023357152938842773,-0.7374023199081421,0.09137227386236191,0.13094459474086761
2026-04-30T15:16:51.100678+00:00,S005,43,50,1777562210994,1777562211136,background,1777562210953,-0.019287828356027603,-0.04161703586578369,-0.01740896701812744,-0.8375326991081238,0.17131470143795013,0.1833641082048416
2026-04-30T15:16:51.100678+00:00,S005,43,50,1777562210994,1777562211136,background,1777562210974,-0.007585231214761734,-0.028591692447662354,0.0024062395095825195,-0.713204026222229,0.19612151384353638,0.17942748963832855
2026-04-30T15:16:51.100678+00:00,S005,43,50,1777562210994,1777562211136,background,1777562210994,0.024433214217424393,0.10225683450698853,0.019138693809509277,-0.28608864545822144,0.10480882972478867,0.08934047818183899
2026-04-30T15:16:51.258375+00:00,S005,44,50,1777562211194,1777562211289,background,1777562211018,0.03485753387212753,0.09667760133743286,0.03148835897445679,0.09604938328266144,-0.007197860162705183,0.006488732993602753
2026-04-30T15:16:51.258375+00:00,S005,44,50,1777562211194,1777562211289,background,1777562211035,0.03008824773132801,0.09534460306167603,0.04097473621368408,0.45861321687698364,-0.09300677478313446,-0.09186084568500519
2026-04-30T15:16:51.258375+00:00,S005,44,50,1777562211194,1777562211289,background,1777562211054,0.03032449446618557,0.03525233268737793,0.0336264967918396,0.5977583527565002,-0.12993131577968597,-0.1536152958869934
2026-04-30T15:16:51.258375+00:00,S005,44,50,1777562211194,1777562211289,background,1777562211074,-0.0007935836911201477,0.015554547309875488,0.016333460807800293,0.6423124074935913,-0.10052146017551422,-0.13969941437244415
2026-04-30T15:16:51.258375+00:00,S005,44,50,1777562211194,1777562211289,background,1777562211094,-0.0008494481444358826,0.02454918622970581,0.016863346099853516,0.6546103954315186,-0.08112386614084244,-0.10986696183681488
2026-04-30T15:16:51.258375+00:00,S005,44,50,1777562211194,1777562211289,background,1777562211114,-0.005712293088436127,0.021688759326934814,0.022190392017364502,0.6993882656097412,-0.06688980013132095,-0.09038737416267395
2026-04-30T15:16:51.258375+00:00,S005,44,50,1777562211194,1777562211289,background,1777562211134,0.005206882953643799,0.008432149887084961,0.01671302318572998,0.6294618844985962,-0.06911753863096237,-0.07230871915817261
2026-04-30T15:16:51.258375+00:00,S005,44,50,1777562211194,1777562211289,background,1777562211165,0.0006502382457256317,-0.019412219524383545,0.005506038665771484,0.45779988169670105,-0.046780385076999664,-0.057257916778326035
2026-04-30T15:16:51.258375+00:00,S005,44,50,1777562211194,1777562211289,background,1777562211176,-0.0030102990567684174,-0.04647243022918701,-0.011180758476257324,0.1787024438381195,-0.00950088631361723,-0.033459533005952835
2026-04-30T15:16:51.258375+00:00,S005,44,50,1777562211194,1777562211289,background,1777562211194,-0.008849207311868668,-0.06417673826217651,-0.013910651206970215,-0.04875706881284714,0.01352781057357788,0.0003463650355115533
2026-04-30T15:16:51.451731+00:00,S005,45,50,1777562211395,1777562211488,background,1777562211214,-0.0005596093833446503,-0.012831270694732666,0.004804015159606934,-0.09897709637880325,0.027543075382709503,0.02246386557817459
2026-04-30T15:16:51.451731+00:00,S005,45,50,1777562211395,1777562211488,background,1777562211234,-0.006684385240077972,-0.010954201221466064,0.004216551780700684,-0.1285051554441452,0.05168440192937851,0.05424485728144646
2026-04-30T15:16:51.451731+00:00,S005,45,50,1777562211395,1777562211488,background,1777562211255,-0.008423663675785065,-0.026237308979034424,-0.0011380314826965332,-0.24822545051574707,0.07630308717489243,0.08158337324857712
2026-04-30T15:16:51.451731+00:00,S005,45,50,1777562211395,1777562211488,background,1777562211275,-0.0044264644384384155,-0.031496286392211914,-0.0046272873878479,-0.4124239683151245,0.09677693247795105,0.0874783918261528
2026-04-30T15:16:51.451731+00:00,S005,45,50,1777562211395,1777562211488,background,1777562211295,-0.004937276244163513,-0.051960647106170654,-0.010123014450073242,-0.5675413608551025,0.10440453141927719,0.09628743678331375
2026-04-30T15:16:51.451731+00:00,S005,45,50,1777562211395,1777562211488,background,1777562211315,0.003185577690601349,0.00023633241653442383,0.0024340152740478516,-0.5209296941757202,0.10145621746778488,0.08268310129642487
2026-04-30T15:16:51.451731+00:00,S005,45,50,1777562211395,1777562211488,background,1777562211335,0.013124492019414902,0.05087786912918091,0.009065568447113037,-0.3694213926792145,0.0501653328537941,0.04546201974153519
2026-04-30T15:16:51.451731+00:00,S005,45,50,1777562211395,1777562211488,background,1777562211355,0.020563606172800064,0.07535368204116821,0.02994513511657715,-0.09948842972517014,-0.0029452103190124035,-0.03078438900411129
2026-04-30T15:16:51.451731+00:00,S005,45,50,1777562211395,1777562211488,background,1777562211375,0.01958226040005684,0.071258544921875,0.03708165884017944,0.1990836262702942,-0.06158839911222458,-0.07023198157548904
2026-04-30T15:16:51.451731+00:00,S005,45,50,1777562211395,1777562211488,background,1777562211395,0.012277141213417053,0.07513755559921265,0.025405824184417725,0.38969483971595764,-0.10010558366775513,-0.07886776328086853
2026-04-30T15:16:51.681092+00:00,S005,46,50,1777562211597,1777562211693,background,1777562211415,0.006543029099702835,0.03559112548828125,0.021212756633758545,0.45792609453201294,-0.10507743805646896,-0.08286559581756592
2026-04-30T15:16:51.681092+00:00,S005,46,50,1777562211597,1777562211693,background,1777562211435,0.0006594322621822357,-0.008342564105987549,0.020794391632080078,0.4433349072933197,-0.08523087203502655,-0.07211946696043015
2026-04-30T15:16:51.681092+00:00,S005,46,50,1777562211597,1777562211693,background,1777562211455,-0.007216371595859528,-0.05196118354797363,0.006364941596984863,0.24599307775497437,-0.032092899084091187,-0.0029173388611525297
2026-04-30T15:16:51.681092+00:00,S005,46,50,1777562211597,1777562211693,background,1777562211476,-0.013690337538719177,-0.03827059268951416,-0.01796412467956543,-0.03704795241355896,0.024309998378157616,0.041796762496232986
2026-04-30T15:16:51.681092+00:00,S005,46,50,1777562211597,1777562211693,background,1777562211496,-0.005730759352445602,-0.058720171451568604,-0.016134142875671387,-0.28006085753440857,0.05314617604017258,0.04951795935630798
2026-04-30T15:16:51.681092+00:00,S005,46,50,1777562211597,1777562211693,background,1777562211516,-0.0007439553737640381,-0.03948533535003662,-0.011873960494995117,-0.4167255163192749,0.06137926131486893,0.05363989248871803
2026-04-30T15:16:51.681092+00:00,S005,46,50,1777562211597,1777562211693,background,1777562211536,0.0011578835546970367,0.0003834962844848633,-0.0026307106018066406,-0.4424489736557007,0.06607848405838013,0.06718622148036957
2026-04-30T15:16:51.681092+00:00,S005,46,50,1777562211597,1777562211693,background,1777562211556,0.0006080791354179382,0.022473394870758057,0.00595402717590332,-0.3578331768512726,0.06768429279327393,0.07206816226243973
2026-04-30T15:16:51.681092+00:00,S005,46,50,1777562211597,1777562211693,background,1777562211576,-0.008513033390045166,0.0247957706451416,0.008344173431396484,-0.29954296350479126,0.09623067826032639,0.10365325957536697
2026-04-30T15:16:51.681092+00:00,S005,46,50,1777562211597,1777562211693,background,1777562211596,-0.0109508465975523,0.004845559597015381,0.003709733486175537,-0.3751943111419678,0.13123135268688202,0.12469121813774109
2026-04-30T15:16:51.848908+00:00,S005,47,50,1777562211797,1777562211878,background,1777562211616,-0.0047336723655462265,-0.028686165809631348,0.0010453462600708008,-0.5702628493309021,0.12750273942947388,0.1191258504986763
2026-04-30T15:16:51.848908+00:00,S005,47,50,1777562211797,1777562211878,background,1777562211636,0.008251823484897614,-0.02004021406173706,-0.0025856494903564453,-0.838872492313385,0.10142704099416733,0.0563649982213974
2026-04-30T15:16:51.848908+00:00,S005,47,50,1777562211797,1777562211878,background,1777562211657,0.018993288278579712,-0.07633131742477417,-0.009022891521453857,-1.1042908430099487,-0.004337054677307606,0.033082205802202225
2026-04-30T15:16:51.848908+00:00,S005,47,50,1777562211797,1777562211878,background,1777562211677,-0.005130987614393234,-0.03628396987915039,-0.01587015390396118,-1.3771871328353882,0.04238787665963173,0.04868683964014053
2026-04-30T15:16:51.848908+00:00,S005,47,50,1777562211797,1777562211878,background,1777562211697,-0.04009239003062248,-0.05436772108078003,-0.025361835956573486,-1.4140443801879883,0.2194889336824417,0.006157649215310812
2026-04-30T15:16:51.848908+00:00,S005,47,50,1777562211797,1777562211878,background,1777562211718,-0.024132028222084045,-0.005640685558319092,0.021395742893218994,-1.0889867544174194,0.24226880073547363,0.1523543745279312
2026-04-30T15:16:51.848908+00:00,S005,47,50,1777562211797,1777562211878,background,1777562211737,0.006142538972198963,0.05157661437988281,0.019993185997009277,-0.7544779777526855,0.16821935772895813,0.2512470781803131
2026-04-30T15:16:51.848908+00:00,S005,47,50,1777562211797,1777562211878,background,1777562211757,0.00952462200075388,0.040549397468566895,0.002998828887939453,-0.6277785897254944,0.11761985719203949,0.30711105465888977
2026-04-30T15:16:51.848908+00:00,S005,47,50,1777562211797,1777562211878,background,1777562211777,0.0025028702802956104,0.04753762483596802,-0.011079847812652588,-0.5845121145248413,0.11028718203306198,0.30484920740127563
2026-04-30T15:16:51.848908+00:00,S005,47,50,1777562211797,1777562211878,background,1777562211797,0.015856340527534485,0.05685758590698242,-0.034563034772872925,-0.5875201225280762,0.0760386660695076,0.2158513367176056
2026-04-30T15:16:52.123007+00:00,S005,48,50,1777562211998,1777562212128,background,1777562211818,0.008163196966052055,-0.03194093704223633,-0.02174440026283264,-0.9474269151687622,-0.7380552887916565,-0.38735562562942505
2026-04-30T15:16:52.123007+00:00,S005,48,50,1777562211998,1777562212128,background,1777562211837,-0.10641573369503021,0.055110394954681396,-0.1795952320098877,-0.10926008969545364,0.037963759154081345,-0.20510751008987427
2026-04-30T15:16:52.123007+00:00,S005,48,50,1777562211998,1777562212128,background,1777562211857,0.17010009288787842,0.1970449686050415,-0.11329352855682373,0.9958049654960632,0.14366117119789124,0.17712640762329102
2026-04-30T15:16:52.123007+00:00,S005,48,50,1777562211998,1777562212128,background,1777562211877,0.03841414302587509,0.008668303489685059,0.08394867181777954,0.9073353409767151,0.1496593952178955,0.13448306918144226
2026-04-30T15:16:52.123007+00:00,S005,48,50,1777562211998,1777562212128,background,1777562211898,-0.02819167636334896,-0.042711853981018066,0.08303773403167725,0.675941526889801,0.2984582781791687,0.13926756381988525
2026-04-30T15:16:52.123007+00:00,S005,48,50,1777562211998,1777562212128,background,1777562211918,-0.007051409222185612,-0.017240941524505615,0.028154850006103516,0.7735325694084167,0.341508150100708,0.09844592958688736
2026-04-30T15:16:52.123007+00:00,S005,48,50,1777562211998,1777562212128,background,1777562211938,-0.043282173573970795,0.0029726624488830566,-0.1279241442680359,0.8452021479606628,0.5106048583984375,0.10364516079425812
2026-04-30T15:16:52.123007+00:00,S005,48,50,1777562211998,1777562212128,background,1777562211958,-0.010623486712574959,-0.05455601215362549,0.05741959810256958,0.19792595505714417,0.5436345338821411,0.11133136600255966
2026-04-30T15:16:52.123007+00:00,S005,48,50,1777562211998,1777562212128,background,1777562211978,-0.0025629065930843353,-0.07028013467788696,0.03705853223800659,-0.21705926954746246,0.5892142653465271,0.12116913497447968
2026-04-30T15:16:52.123007+00:00,S005,48,50,1777562211998,1777562212128,background,1777562211998,0.009627990424633026,0.0007297992706298828,0.07090550661087036,-0.19674494862556458,0.5205097198486328,0.10282298922538757
2026-04-30T15:16:52.284100+00:00,S005,49,50,1777562212199,1777562212319,background,1777562212018,0.033622730523347855,0.0018083453178405762,0.12208640575408936,-0.2221570909023285,0.3645845353603363,0.08070214092731476
2026-04-30T15:16:52.284100+00:00,S005,49,50,1777562212199,1777562212319,background,1777562212038,0.02435285598039627,-0.007083117961883545,0.14813238382339478,-0.30336058139801025,0.20420287549495697,0.04542883485555649
2026-04-30T15:16:52.284100+00:00,S005,49,50,1777562212199,1777562212319,background,1777562212058,0.005888126790523529,0.0027000904083251953,0.13111501932144165,-0.3154348134994507,0.074607715010643,0.018842551857233047
2026-04-30T15:16:52.284100+00:00,S005,49,50,1777562212199,1777562212319,background,1777562212079,0.0015779845416545868,0.01644003391265869,0.10609698295593262,-0.23811528086662292,-0.04668671637773514,0.0002922495477832854
2026-04-30T15:16:52.284100+00:00,S005,49,50,1777562212199,1777562212319,background,1777562212099,0.0023840926587581635,0.038419246673583984,0.02183830738067627,-0.021052205935120583,-0.11906344443559647,-0.03070172481238842
2026-04-30T15:16:52.284100+00:00,S005,49,50,1777562212199,1777562212319,background,1777562212119,-0.00018776953220367432,0.010119974613189697,0.05247616767883301,-0.0029762666672468185,-0.17872768640518188,-0.03469790518283844
2026-04-30T15:16:52.284100+00:00,S005,49,50,1777562212199,1777562212319,background,1777562212139,0.008605796843767166,-0.015446186065673828,0.10323107242584229,-0.07441689074039459,-0.24872110784053802,-0.0861131101846695
2026-04-30T15:16:52.284100+00:00,S005,49,50,1777562212199,1777562212319,background,1777562212160,-0.019082169979810715,-0.053878068923950195,0.032412171363830566,0.9550058841705322,0.1344420611858368,-0.2502829134464264
2026-04-30T15:16:52.284100+00:00,S005,49,50,1777562212199,1777562212319,background,1777562212179,-0.07627084851264954,0.20718824863433838,-0.03878670930862427,0.24856887757778168,0.2803643047809601,0.10958763211965561
2026-04-30T15:16:52.284100+00:00,S005,49,50,1777562212199,1777562212319,background,1777562212199,0.054171741008758545,-0.05980342626571655,-0.10843312740325928,-0.07852987945079803,0.13020101189613342,0.04252108931541443
2026-04-30T15:16:52.479664+00:00,S005,50,50,1777562212403,1777562212491,background,1777562212219,0.01871778443455696,0.018168509006500244,0.006833434104919434,-0.018469205126166344,0.09290214627981186,0.03615773096680641
2026-04-30T15:16:52.479664+00:00,S005,50,50,1777562212403,1777562212491,background,1777562212239,0.02365521714091301,-0.028393864631652832,0.012775599956512451,-0.06434375047683716,-0.017785143107175827,0.01869511976838112
2026-04-30T15:16:52.479664+00:00,S005,50,50,1777562212403,1777562212491,background,1777562212259,0.04407516121864319,0.038790762424468994,0.02518761157989502,-0.005374973639845848,-0.10765983164310455,0.02548692561686039
2026-04-30T15:16:52.479664+00:00,S005,50,50,1777562212403,1777562212491,background,1777562212279,0.022371824830770493,0.013649463653564453,-0.01804053783416748,0.04556996375322342,-0.15383391082286835,0.010913415811955929
2026-04-30T15:16:52.479664+00:00,S005,50,50,1777562212403,1777562212491,background,1777562212299,0.010183203965425491,0.009715020656585693,0.009783744812011719,0.09087219834327698,-0.16519543528556824,-0.007182178553193808
2026-04-30T15:16:52.479664+00:00,S005,50,50,1777562212403,1777562212491,background,1777562212320,-0.009789910167455673,-0.02762526273727417,0.022085070610046387,0.04069105163216591,-0.11925401538610458,-0.014344324357807636
2026-04-30T15:16:52.479664+00:00,S005,50,50,1777562212403,1777562212491,background,1777562212340,-0.024245820939540863,-0.006024599075317383,0.011656582355499268,-0.0026660077273845673,-0.05368109419941902,-0.018057888373732567
2026-04-30T15:16:52.479664+00:00,S005,50,50,1777562212403,1777562212491,background,1777562212360,-0.008258514106273651,0.015675127506256104,0.010647416114807129,0.04096003621816635,-0.023727567866444588,-0.0013951825676485896
2026-04-30T15:16:52.479664+00:00,S005,50,50,1777562212403,1777562212491,background,1777562212380,-0.012103613466024399,0.022052228450775146,0.00931638479232788,0.08139027655124664,0.02714984118938446,0.0468398854136467
2026-04-30T15:16:52.479664+00:00,S005,50,50,1777562212403,1777562212491,background,1777562212403,-0.019351407885551453,0.0061914920806884766,0.0074620842933654785,0.09956875443458557,0.0805363655090332,0.07643362134695053
2026-04-30T15:16:52.667876+00:00,S005,51,50,1777562212601,1777562212692,background,1777562212420,0.0005885884165763855,-0.004437148571014404,0.007290482521057129,0.11017878353595734,0.07585269957780838,0.07090575248003006
2026-04-30T15:16:52.667876+00:00,S005,51,50,1777562212601,1777562212692,background,1777562212440,0.015528462827205658,0.010829448699951172,0.02221071720123291,0.10699871182441711,0.05942472815513611,0.047655556350946426
2026-04-30T15:16:52.667876+00:00,S005,51,50,1777562212601,1777562212692,background,1777562212460,0.012509390711784363,-0.007660567760467529,-0.008898258209228516,0.0297505222260952,0.050437889993190765,0.05139729753136635
2026-04-30T15:16:52.667876+00:00,S005,51,50,1777562212601,1777562212692,background,1777562212481,0.009349439293146133,0.003041684627532959,-0.010439038276672363,-0.0017839688807725906,0.04813612252473831,0.024895917624235153
2026-04-30T15:16:52.667876+00:00,S005,51,50,1777562212601,1777562212692,background,1777562212500,0.00682704895734787,-0.02490556240081787,-0.02493077516555786,-0.07111404091119766,0.03506464138627052,0.0012392696226015687
2026-04-30T15:16:52.667876+00:00,S005,51,50,1777562212601,1777562212692,background,1777562212521,0.01797148585319519,0.020578324794769287,-0.001003265380859375,-0.016535216942429543,0.002380921272560954,0.004280226770788431
2026-04-30T15:16:52.667876+00:00,S005,51,50,1777562212601,1777562212692,background,1777562212541,0.009391088038682938,-0.02015763521194458,-0.007753551006317139,-0.07983269542455673,-0.010362722910940647,0.022875003516674042
2026-04-30T15:16:52.667876+00:00,S005,51,50,1777562212601,1777562212692,background,1777562212561,0.00117439404129982,-0.012488722801208496,-0.007885932922363281,-0.1729051172733307,0.003911934792995453,0.04404521360993385
2026-04-30T15:16:52.667876+00:00,S005,51,50,1777562212601,1777562212692,background,1777562212581,0.001289714127779007,-0.006499767303466797,0.0054683685302734375,-0.11069713532924652,-0.009431339800357819,0.00718978326767683
2026-04-30T15:16:52.667876+00:00,S005,51,50,1777562212601,1777562212692,background,1777562212601,-0.0008246675133705139,0.05635935068130493,0.009802043437957764,-0.016843345016241074,0.01672900654375553,-0.02959081344306469
2026-04-30T15:16:52.896393+00:00,S005,52,50,1777562212802,1777562212915,background,1777562212621,-0.0034628286957740784,-0.007082641124725342,0.007014155387878418,-0.046703241765499115,0.0535975806415081,-0.01689312793314457
2026-04-30T15:16:52.896393+00:00,S005,52,50,1777562212802,1777562212915,background,1777562212641,-0.014799315482378006,-0.04060482978820801,0.005949556827545166,-0.11943310499191284,0.11366643011569977,0.0031569055281579494
2026-04-30T15:16:52.896393+00:00,S005,52,50,1777562212802,1777562212915,background,1777562212661,-0.007014624774456024,0.03461068868637085,0.011352479457855225,0.061130814254283905,0.1127597764134407,0.017473367974162102
2026-04-30T15:16:52.896393+00:00,S005,52,50,1777562212802,1777562212915,background,1777562212681,-0.005337011069059372,0.02486276626586914,0.013893365859985352,0.12856978178024292,0.12092974781990051,0.03846009075641632
2026-04-30T15:16:52.896393+00:00,S005,52,50,1777562212802,1777562212915,background,1777562212701,0.003130536526441574,0.019074559211730957,0.014642059803009033,0.16568651795387268,0.09945668280124664,0.0581989586353302
2026-04-30T15:16:52.896393+00:00,S005,52,50,1777562212802,1777562212915,background,1777562212721,0.02597370743751526,-0.012257158756256104,-0.023201465606689453,0.008911019191145897,0.04246313124895096,0.07158086448907852
2026-04-30T15:16:52.896393+00:00,S005,52,50,1777562212802,1777562212915,background,1777562212742,0.031811170279979706,-0.024315714836120605,-0.012383222579956055,-0.08572068065404892,-0.030835583806037903,0.04622464254498482
2026-04-30T15:16:52.896393+00:00,S005,52,50,1777562212802,1777562212915,background,1777562212762,0.022550713270902634,-0.02610301971435547,-0.004240632057189941,-0.18197397887706757,-0.06941524147987366,0.02065563201904297
2026-04-30T15:16:52.896393+00:00,S005,52,50,1777562212802,1777562212915,background,1777562212782,0.01317666471004486,-0.006333351135253906,-0.003876805305480957,-0.18779298663139343,-0.10466130077838898,0.004126775078475475
2026-04-30T15:16:52.896393+00:00,S005,52,50,1777562212802,1777562212915,background,1777562212802,0.0012632906436920166,0.012262344360351562,0.007072508335113525,-0.1445845365524292,-0.09530705958604813,-0.012724217027425766
2026-04-30T15:16:53.047004+00:00,S005,53,50,1777562213003,1777562213085,background,1777562212822,-0.006146151572465897,0.014220893383026123,0.008878529071807861,-0.0741385892033577,-0.07616109400987625,0.0013859565369784832
2026-04-30T15:16:53.047004+00:00,S005,53,50,1777562213003,1777562213085,background,1777562212842,-0.0006873644888401031,0.020461618900299072,0.013589739799499512,0.014422165229916573,-0.07456472516059875,0.014382448978722095
2026-04-30T15:16:53.047004+00:00,S005,53,50,1777562213003,1777562213085,background,1777562212862,0.0013378448784351349,0.012728273868560791,0.016782760620117188,0.08717440068721771,-0.06558333337306976,0.00017107573512475938
2026-04-30T15:16:53.047004+00:00,S005,53,50,1777562213003,1777562213085,background,1777562212882,-0.0038594454526901245,0.005641818046569824,0.006677746772766113,0.09527893364429474,-0.052152931690216064,0.0049340324476361275
2026-04-30T15:16:53.047004+00:00,S005,53,50,1777562213003,1777562213085,background,1777562212903,0.0005160458385944366,0.0183790922164917,0.01725870370864868,0.12952452898025513,-0.04063761234283447,-0.024385718628764153
2026-04-30T15:16:53.047004+00:00,S005,53,50,1777562213003,1777562213085,background,1777562212922,-0.0029631629586219788,-0.006190836429595947,0.0063893795013427734,0.14555194973945618,-0.03230104595422745,-0.026416806504130363
2026-04-30T15:16:53.047004+00:00,S005,53,50,1777562213003,1777562213085,background,1777562212945,-0.0014102794229984283,0.029108643531799316,0.01835387945175171,0.21866105496883392,-0.036703094840049744,-0.03378012776374817
2026-04-30T15:16:53.047004+00:00,S005,53,50,1777562213003,1777562213085,background,1777562212963,-0.001230679452419281,0.0035295486450195312,0.010580062866210938,0.22169065475463867,-0.03832245245575905,-0.02532869018614292
2026-04-30T15:16:53.047004+00:00,S005,53,50,1777562213003,1777562213085,background,1777562212983,0.0003808066248893738,-0.03382861614227295,-0.011501431465148926,0.0753459706902504,-0.03833264857530594,0.0036329186987131834
2026-04-30T15:16:53.047004+00:00,S005,53,50,1777562213003,1777562213085,background,1777562213003,0.00046776607632637024,-0.033027708530426025,-0.01032555103302002,-0.1110268384218216,-0.017073165625333786,0.022537419572472572
