local_ts,session_id,sequence,sample_rate_hz,watch_sent_at,phone_received_at,server_received_ms,source,ts,ax,ay,az,rx,ry,rz
2026-04-30T16:25:52.214000+00:00,S006,0,50,1777566352126,1777566352222,1777566352214,message,1777566351974,-0.010343655943870544,-0.0013557672500610352,-0.054057776927948,-0.4111941158771515,0.13778679072856903,0.030118482187390327
2026-04-30T16:25:52.214000+00:00,S006,0,50,1777566352126,1777566352222,1777566352214,message,1777566351982,-0.040662236511707306,-0.004260897636413574,-0.007013380527496338,-0.20324064791202545,0.11686360090970993,-0.030573787167668343
2026-04-30T16:25:52.214000+00:00,S006,0,50,1777566352126,1777566352222,1777566352214,message,1777566351993,-0.024566277861595154,-0.04005454480648041,0.016215085983276367,-0.2939481735229492,0.12383780628442764,-0.05218544602394104
2026-04-30T16:25:52.214000+00:00,S006,0,50,1777566352126,1777566352222,1777566352214,message,1777566352005,0.003925025463104248,-0.024009138345718384,0.005421698093414307,-0.3573439419269562,0.0973278284072876,-0.03955806791782379
2026-04-30T16:25:52.214000+00:00,S006,0,50,1777566352126,1777566352222,1777566352214,message,1777566352026,0.011875040829181671,0.0083065927028656,0.01534116268157959,-0.24927498400211334,0.049437422305345535,-0.056921716779470444
2026-04-30T16:25:52.214000+00:00,S006,0,50,1777566352126,1777566352222,1777566352214,message,1777566352046,0.006654098629951477,0.03499341011047363,0.025299012660980225,-0.1119682639837265,0.016125651076436043,-0.033255431801080704
2026-04-30T16:25:52.214000+00:00,S006,0,50,1777566352126,1777566352222,1777566352214,message,1777566352068,0.013452969491481781,0.07366669178009033,0.009229004383087158,0.10488921403884888,-0.022906703874468803,-0.024036100134253502
2026-04-30T16:25:52.214000+00:00,S006,0,50,1777566352126,1777566352222,1777566352214,message,1777566352086,0.023586951196193695,0.02422887086868286,0.03700459003448486,0.13718056678771973,-0.06807764619588852,-0.005967883393168449
2026-04-30T16:25:52.214000+00:00,S006,0,50,1777566352126,1777566352222,1777566352214,message,1777566352106,-0.0023098960518836975,-0.008055895566940308,0.020361483097076416,0.018705062568187714,-0.06251829117536545,0.045629262924194336
2026-04-30T16:25:52.214000+00:00,S006,0,50,1777566352126,1777566352222,1777566352214,message,1777566352126,-0.023108728229999542,0.00509992241859436,-0.04642599821090698,0.07411505281925201,-0.021348070353269577,0.04535847157239914
2026-04-30T16:25:52.376000+00:00,S006,1,50,1777566352328,1777566352414,1777566352376,message,1777566352147,-0.012413159012794495,0.004678785800933838,-0.06392908096313477,0.1802726536989212,0.00591813400387764,0.03926633298397064
2026-04-30T16:25:52.376000+00:00,S006,1,50,1777566352328,1777566352414,1777566352376,message,1777566352167,-0.008853055536746979,-0.024393200874328613,-0.021657824516296387,0.12155235558748245,0.022768905386328697,0.029253965243697166
2026-04-30T16:25:52.376000+00:00,S006,1,50,1777566352328,1777566352414,1777566352376,message,1777566352187,-0.00990835577249527,-0.03375086188316345,-0.0017998218536376953,-0.000806853175163269,0.028631892055273056,-0.0071122972294688225
2026-04-30T16:25:52.376000+00:00,S006,1,50,1777566352328,1777566352414,1777566352376,message,1777566352207,-0.003367580473423004,-0.045498400926589966,0.01151353120803833,-0.08818943053483963,0.009533603675663471,-0.006188446655869484
2026-04-30T16:25:52.376000+00:00,S006,1,50,1777566352328,1777566352414,1777566352376,message,1777566352227,-0.009698174893856049,-0.022274672985076904,0.005699574947357178,-0.05880038067698479,-0.0008777201874181628,-0.0018481329316273332
2026-04-30T16:25:52.376000+00:00,S006,1,50,1777566352328,1777566352414,1777566352376,message,1777566352247,-0.006969176232814789,0.01490771770477295,-0.02015906572341919,0.053600192070007324,-0.0036566145718097687,0.007913577370345592
2026-04-30T16:25:52.376000+00:00,S006,1,50,1777566352328,1777566352414,1777566352376,message,1777566352268,0.004864118993282318,0.02186518907546997,-0.0039786696434021,0.11236736923456192,-0.0026676305569708347,0.0167417973279953
2026-04-30T16:25:52.376000+00:00,S006,1,50,1777566352328,1777566352414,1777566352376,message,1777566352287,0.0026060715317726135,0.011209383606910706,-0.0037828683853149414,0.10459838807582855,-0.003258700482547283,0.019313771277666092
2026-04-30T16:25:52.376000+00:00,S006,1,50,1777566352328,1777566352414,1777566352376,message,1777566352307,-0.0029731839895248413,-0.0055668652057647705,0.012069106101989746,0.07933644950389862,-0.00833689235150814,0.018084773793816566
2026-04-30T16:25:52.376000+00:00,S006,1,50,1777566352328,1777566352414,1777566352376,message,1777566352327,-0.007190138101577759,-0.0165548175573349,0.0043662190437316895,0.08977950364351273,-0.01739414967596531,0.02197379060089588
2026-04-30T16:25:52.567000+00:00,S006,2,50,1777566352529,1777566352624,1777566352567,message,1777566352347,-0.010783031582832336,-0.014364540576934814,-0.001998424530029297,0.12740464508533478,-0.02430509217083454,0.02990841120481491
2026-04-30T16:25:52.567000+00:00,S006,2,50,1777566352529,1777566352624,1777566352567,message,1777566352368,-0.004105478525161743,0.009175434708595276,-0.020021677017211914,0.21692466735839844,-0.020521271973848343,0.027260804548859596
2026-04-30T16:25:52.567000+00:00,S006,2,50,1777566352529,1777566352624,1777566352567,message,1777566352387,-0.0013840049505233765,-0.0029347091913223267,-0.015500366687774658,0.14186108112335205,-0.009496660903096199,0.02889699675142765
2026-04-30T16:25:52.567000+00:00,S006,2,50,1777566352529,1777566352624,1777566352567,message,1777566352407,0.0016491934657096863,-0.02392628788948059,0.008107602596282959,-0.008016563951969147,-0.0001563459518365562,0.020320657640695572
2026-04-30T16:25:52.567000+00:00,S006,2,50,1777566352529,1777566352624,1777566352567,message,1777566352428,-0.001763664186000824,-0.02589234709739685,0.0027474164962768555,-0.06622261554002762,0.0003055222623515874,0.0041705043986439705
2026-04-30T16:25:52.567000+00:00,S006,2,50,1777566352529,1777566352624,1777566352567,message,1777566352448,-0.00930941104888916,-0.019506677985191345,-0.009691894054412842,-0.06286303699016571,-0.00028760178247466683,0.01562193688005209
2026-04-30T16:25:52.567000+00:00,S006,2,50,1777566352529,1777566352624,1777566352567,message,1777566352470,-0.00849701464176178,0.00561147928237915,-0.01077812910079956,0.03647873178124428,-0.012158224359154701,0.010899833403527737
2026-04-30T16:25:52.567000+00:00,S006,2,50,1777566352529,1777566352624,1777566352567,message,1777566352488,0.003503553569316864,0.013429403305053711,0.0017313957214355469,0.0855107232928276,-0.015746338292956352,0.009173732250928879
2026-04-30T16:25:52.567000+00:00,S006,2,50,1777566352529,1777566352624,1777566352567,message,1777566352508,-0.0009580701589584351,0.0033854544162750244,-0.021016716957092285,0.0714404433965683,-0.002609307412058115,0.011784854345023632
2026-04-30T16:25:52.567000+00:00,S006,2,50,1777566352529,1777566352624,1777566352567,message,1777566352528,-0.005400411784648895,-0.006459236145019531,-0.02098667621612549,0.047407813370227814,0.009744716808199883,0.020962907001376152
2026-04-30T16:25:52.782000+00:00,S006,3,50,1777566352730,1777566352839,1777566352782,message,1777566352548,-0.0030348673462867737,-0.0009490698575973511,-0.009481549263000488,0.09315825998783112,0.007837093435227871,0.008587784133851528
2026-04-30T16:25:52.782000+00:00,S006,3,50,1777566352730,1777566352839,1777566352782,message,1777566352568,-0.005270272493362427,-0.005264148116111755,0.01391690969467163,0.1442970633506775,-0.0011753094149753451,0.0054921782575547695
2026-04-30T16:25:52.782000+00:00,S006,3,50,1777566352730,1777566352839,1777566352782,message,1777566352588,-0.005720265209674835,0.009426116943359375,-0.005671501159667969,0.23045378923416138,-0.001728371949866414,0.02094181440770626
2026-04-30T16:25:52.782000+00:00,S006,3,50,1777566352730,1777566352839,1777566352782,message,1777566352608,0.0018380135297775269,0.022123411297798157,-0.016591548919677734,0.33362865447998047,-0.008308167569339275,0.02568410523235798
2026-04-30T16:25:52.782000+00:00,S006,3,50,1777566352730,1777566352839,1777566352782,message,1777566352629,0.00417790561914444,0.003866836428642273,-0.009074509143829346,0.29602986574172974,0.000509215984493494,0.023236554116010666
2026-04-30T16:25:52.782000+00:00,S006,3,50,1777566352730,1777566352839,1777566352782,message,1777566352649,-0.0004456937313079834,0.0034102946519851685,-0.004725933074951172,0.26203301548957825,0.00497434800490737,0.035871442407369614
2026-04-30T16:25:52.782000+00:00,S006,3,50,1777566352730,1777566352839,1777566352782,message,1777566352669,-0.0009186714887619019,-0.011779844760894775,0.001959562301635742,0.25121501088142395,-0.0017588840564712882,0.024048764258623123
2026-04-30T16:25:52.782000+00:00,S006,3,50,1777566352730,1777566352839,1777566352782,message,1777566352689,-0.00290101021528244,-0.03463149070739746,0.01719379425048828,0.22977231442928314,-0.008730354718863964,0.02783556655049324
2026-04-30T16:25:52.782000+00:00,S006,3,50,1777566352730,1777566352839,1777566352782,message,1777566352709,-0.004970863461494446,-0.00870022177696228,-0.005405247211456299,0.27489423751831055,-0.012746592052280903,0.032529015094041824
2026-04-30T16:25:52.782000+00:00,S006,3,50,1777566352730,1777566352839,1777566352782,message,1777566352729,-0.002077259123325348,-0.020775899291038513,-0.016290366649627686,0.23682087659835815,-0.005847863852977753,0.017736008390784264
2026-04-30T16:25:52.973000+00:00,S006,4,50,1777566352931,1777566353008,1777566352973,message,1777566352749,-0.004365548491477966,-0.025812894105911255,-0.005872964859008789,0.1365227848291397,0.00575393158942461,0.016820520162582397
2026-04-30T16:25:52.973000+00:00,S006,4,50,1777566352931,1777566353008,1777566352973,message,1777566352769,-0.006077654659748077,-0.01848451793193817,-2.4497509002685547e-05,0.08132849633693695,0.00646062009036541,0.002064530039206147
2026-04-30T16:25:52.973000+00:00,S006,4,50,1777566352931,1777566353008,1777566352973,message,1777566352789,0.000996023416519165,-0.02738921344280243,0.0016091465950012207,0.02885356917977333,0.0037833061069250107,-0.0012158985482528806
2026-04-30T16:25:52.973000+00:00,S006,4,50,1777566352931,1777566353008,1777566352973,message,1777566352809,-0.0022414103150367737,-0.02041451632976532,-0.002099156379699707,0.025700651109218597,-0.0010436351876705885,0.007191807497292757
2026-04-30T16:25:52.973000+00:00,S006,4,50,1777566352931,1777566353008,1777566352973,message,1777566352830,-0.0009657666087150574,0.0040513575077056885,-0.010222077369689941,0.055170394480228424,0.0019358334830030799,0.004211623687297106
2026-04-30T16:25:52.973000+00:00,S006,4,50,1777566352931,1777566353008,1777566352973,message,1777566352850,0.003193505108356476,-0.011117637157440186,-0.0005017518997192383,0.026862857863307,-0.00358486152254045,0.000824189162813127
2026-04-30T16:25:52.973000+00:00,S006,4,50,1777566352931,1777566353008,1777566352973,message,1777566352870,-0.0038862228393554688,-0.007795751094818115,0.0031654834747314453,0.023262526839971542,-0.0024009342305362225,0.00710600009188056
2026-04-30T16:25:52.973000+00:00,S006,4,50,1777566352931,1777566353008,1777566352973,message,1777566352890,-0.004571959376335144,-0.003939911723136902,-0.007308006286621094,0.07702615857124329,0.0033346398267894983,0.017183560878038406
2026-04-30T16:25:52.973000+00:00,S006,4,50,1777566352931,1777566353008,1777566352973,message,1777566352910,-0.008101195096969604,-0.003971859812736511,-0.021496713161468506,0.144403874874115,0.010472938418388367,0.01186315156519413
2026-04-30T16:25:52.973000+00:00,S006,4,50,1777566352931,1777566353008,1777566352973,message,1777566352930,0.0016188174486160278,-0.004429444670677185,-0.018843531608581543,0.174387589097023,0.01807500794529915,0.013192389160394669
2026-04-30T16:25:53.170000+00:00,S006,5,50,1777566353131,1777566353218,1777566353170,message,1777566352950,-0.0009331107139587402,0.008087262511253357,-0.012131094932556152,0.1983155608177185,0.028984570875763893,0.009328568354249
2026-04-30T16:25:53.170000+00:00,S006,5,50,1777566353131,1777566353218,1777566353170,message,1777566352970,-0.006998196244239807,0.016121506690979004,-0.03573673963546753,0.3007820248603821,0.06374605745077133,0.02348065935075283
2026-04-30T16:25:53.170000+00:00,S006,5,50,1777566353131,1777566353218,1777566353170,message,1777566352990,-0.013723395764827728,0.043828949332237244,-0.0680646300315857,0.542130172252655,0.11734699457883835,0.03634063899517059
2026-04-30T16:25:53.170000+00:00,S006,5,50,1777566353131,1777566353218,1777566353170,message,1777566353010,-0.02643391489982605,0.10941603779792786,-0.16542434692382812,1.2395319938659668,0.1958330273628235,0.044893328100442886
2026-04-30T16:25:53.170000+00:00,S006,5,50,1777566353131,1777566353218,1777566353170,message,1777566353031,-0.03482168912887573,0.10929860919713974,-0.15356755256652832,2.081820487976074,0.14844219386577606,-0.003343710908666253
2026-04-30T16:25:53.170000+00:00,S006,5,50,1777566353131,1777566353218,1777566353170,message,1777566353051,-0.02833649516105652,0.04337644577026367,-0.09014278650283813,2.2764201164245605,0.23950904607772827,0.0713237076997757
2026-04-30T16:25:53.170000+00:00,S006,5,50,1777566353131,1777566353218,1777566353170,message,1777566353071,-0.043768107891082764,0.058464303612709045,-0.06321364641189575,2.038349151611328,0.37773895263671875,0.0891016349196434
2026-04-30T16:25:53.170000+00:00,S006,5,50,1777566353131,1777566353218,1777566353170,message,1777566353091,-0.018634378910064697,0.07276476174592972,-0.01886969804763794,1.7295485734939575,0.43341493606567383,0.09145352989435196
2026-04-30T16:25:53.170000+00:00,S006,5,50,1777566353131,1777566353218,1777566353170,message,1777566353111,-0.009651124477386475,0.03463798388838768,-0.01230764389038086,1.1505637168884277,0.5536648035049438,0.20782653987407684
2026-04-30T16:25:53.170000+00:00,S006,5,50,1777566353131,1777566353218,1777566353170,message,1777566353131,-0.00637468695640564,0.05032586306333542,-0.0709962248802185,0.9684774875640869,0.5952884554862976,0.1878635287284851
2026-04-30T16:25:53.375000+00:00,S006,6,50,1777566353332,1777566353433,1777566353375,message,1777566353152,-0.04720507562160492,0.04814601689577103,-0.08297896385192871,0.8807799220085144,0.6443941593170166,0.21824684739112854
2026-04-30T16:25:53.375000+00:00,S006,6,50,1777566353332,1777566353433,1777566353375,message,1777566353171,-0.062048882246017456,0.03940117359161377,-0.052856624126434326,0.8667815327644348,0.6883905529975891,0.27039283514022827
2026-04-30T16:25:53.375000+00:00,S006,6,50,1777566353332,1777566353433,1777566353375,message,1777566353191,-0.05825167894363403,0.058372773230075836,-0.04335695505142212,0.9557063579559326,0.7285079956054688,0.29162880778312683
2026-04-30T16:25:53.375000+00:00,S006,6,50,1777566353332,1777566353433,1777566353375,message,1777566353211,-0.10688409209251404,-0.006826043128967285,-0.009424448013305664,0.8734226226806641,0.6950650215148926,0.28244084119796753
2026-04-30T16:25:53.375000+00:00,S006,6,50,1777566353332,1777566353433,1777566353375,message,1777566353232,-0.12730327248573303,-0.024098291993141174,0.03589367866516113,0.6471527218818665,0.6077145338058472,0.21724890172481537
2026-04-30T16:25:53.375000+00:00,S006,6,50,1777566353332,1777566353433,1777566353375,message,1777566353252,-0.1416218876838684,0.04782514274120331,0.053984224796295166,0.2863394320011139,0.4898488521575928,0.20302340388298035
2026-04-30T16:25:53.375000+00:00,S006,6,50,1777566353332,1777566353433,1777566353375,message,1777566353272,-0.18351975083351135,0.15746554732322693,-0.004200935363769531,-0.317312628030777,0.4503052532672882,0.3155357837677002
2026-04-30T16:25:53.375000+00:00,S006,6,50,1777566353332,1777566353433,1777566353375,message,1777566353292,-0.17957967519760132,0.2318945676088333,-0.02990168333053589,-0.2237059772014618,0.397319495677948,0.43002980947494507
2026-04-30T16:25:53.375000+00:00,S006,6,50,1777566353332,1777566353433,1777566353375,message,1777566353312,-0.14578890800476074,0.24741259217262268,-0.07349163293838501,-0.17224332690238953,0.35117512941360474,0.5857546329498291
2026-04-30T16:25:53.375000+00:00,S006,6,50,1777566353332,1777566353433,1777566353375,message,1777566353332,-0.0818544328212738,0.14991258084774017,0.0325777530670166,-0.8544878959655762,0.28840747475624084,0.6666076183319092
2026-04-30T16:25:53.567000+00:00,S006,7,50,1777566353534,1777566353620,1777566353567,message,1777566353354,-0.04358029365539551,-0.12492147088050842,0.1555735468864441,-2.0413687229156494,0.20982740819454193,0.5686780214309692
2026-04-30T16:25:53.567000+00:00,S006,7,50,1777566353534,1777566353620,1777566353567,message,1777566353372,-0.0011691153049468994,-0.2848665118217468,0.17346614599227905,-3.2595109939575195,0.07091083377599716,0.49723097681999207
2026-04-30T16:25:53.567000+00:00,S006,7,50,1777566353534,1777566353620,1777566353567,message,1777566353392,-6.0558319091796875e-05,-0.2966725528240204,0.17989569902420044,-4.045907497406006,-0.013226683251559734,0.3733021020889282
2026-04-30T16:25:53.567000+00:00,S006,7,50,1777566353534,1777566353620,1777566353567,message,1777566353412,0.02306133508682251,-0.19227856397628784,0.1732008457183838,-4.4383225440979,-0.0620364174246788,0.35574808716773987
2026-04-30T16:25:53.567000+00:00,S006,7,50,1777566353534,1777566353620,1777566353567,message,1777566353432,0.07021114230155945,-0.14541667699813843,0.051926374435424805,-4.054568767547607,-0.15343664586544037,0.1706569492816925
2026-04-30T16:25:53.567000+00:00,S006,7,50,1777566353534,1777566353620,1777566353567,message,1777566353453,0.11586061120033264,-0.09748795628547668,-0.02843010425567627,-3.1818275451660156,-0.1862180531024933,0.10387808084487915
2026-04-30T16:25:53.567000+00:00,S006,7,50,1777566353534,1777566353620,1777566353567,message,1777566353473,0.12332949042320251,-0.07179301977157593,-0.0023499727249145508,-2.257294178009033,-0.19069141149520874,0.012409312650561333
2026-04-30T16:25:53.567000+00:00,S006,7,50,1777566353534,1777566353620,1777566353567,message,1777566353493,0.13131514191627502,-0.091636061668396,0.06185269355773926,-1.673742651939392,-0.27178671956062317,-0.10752609372138977
2026-04-30T16:25:53.567000+00:00,S006,7,50,1777566353534,1777566353620,1777566353567,message,1777566353513,0.12002730369567871,-0.15338289737701416,0.07333928346633911,-1.5409533977508545,-0.2565019726753235,-0.17915628850460052
2026-04-30T16:25:53.567000+00:00,S006,7,50,1777566353534,1777566353620,1777566353567,message,1777566353533,0.09367741644382477,-0.211452454328537,0.004310190677642822,-1.561692237854004,-0.27872708439826965,-0.23385462164878845
2026-04-30T16:25:53.816000+00:00,S006,8,50,1777566353734,1777566353837,1777566353816,message,1777566353553,0.10030239820480347,-0.12075179815292358,0.026316702365875244,-1.516563057899475,-0.3170616924762726,-0.17874759435653687
2026-04-30T16:25:53.816000+00:00,S006,8,50,1777566353734,1777566353837,1777566353816,message,1777566353573,0.06713134050369263,0.01326027512550354,-0.012624382972717285,-1.3658246994018555,-0.3194143772125244,-0.2257927656173706
2026-04-30T16:25:53.816000+00:00,S006,8,50,1777566353734,1777566353837,1777566353816,message,1777566353593,0.047019749879837036,0.08388566970825195,-0.021616876125335693,-1.268885850906372,-0.2692258358001709,-0.09092911332845688
2026-04-30T16:25:53.816000+00:00,S006,8,50,1777566353734,1777566353837,1777566353816,message,1777566353613,0.02043136954307556,0.09206327795982361,-0.10280489921569824,-1.2117962837219238,-0.19661027193069458,-0.0902479812502861
2026-04-30T16:25:53.816000+00:00,S006,8,50,1777566353734,1777566353837,1777566353816,message,1777566353633,-0.0021476447582244873,0.011480540037155151,-0.11061245203018188,-1.1447306871414185,-0.08352839201688766,-0.08627533912658691
2026-04-30T16:25:53.816000+00:00,S006,8,50,1777566353734,1777566353837,1777566353816,message,1777566353654,-0.00431428849697113,-0.005155593156814575,-0.07802075147628784,-1.0384646654129028,-0.026464002206921577,-0.07913663238286972
2026-04-30T16:25:53.816000+00:00,S006,8,50,1777566353734,1777566353837,1777566353816,message,1777566353673,0.00045812129974365234,-0.01650404930114746,-0.03254431486129761,-0.812568187713623,-0.045515306293964386,-0.11739209294319153
2026-04-30T16:25:53.816000+00:00,S006,8,50,1777566353734,1777566353837,1777566353816,message,1777566353693,0.0036117881536483765,-0.020328998565673828,-0.0513920783996582,-0.5418266654014587,-0.12996940314769745,-0.13683603703975677
2026-04-30T16:25:53.816000+00:00,S006,8,50,1777566353734,1777566353837,1777566353816,message,1777566353714,0.002466335892677307,-0.04083836078643799,-0.058674395084381104,-0.4667639136314392,-0.22260090708732605,-0.1183825209736824
2026-04-30T16:25:53.816000+00:00,S006,8,50,1777566353734,1777566353837,1777566353816,message,1777566353734,-0.01588459312915802,0.016852974891662598,-0.05225473642349243,-0.47900643944740295,-0.22018709778785706,-0.08501162379980087
2026-04-30T16:25:53.995000+00:00,S006,9,50,1777566353935,1777566354051,1777566353995,message,1777566353756,-0.08421666920185089,0.09963750839233398,-0.11811661720275879,-0.699756383895874,-0.09094993770122528,-0.09230346977710724
2026-04-30T16:25:53.995000+00:00,S006,9,50,1777566353935,1777566354051,1777566353995,message,1777566353774,-0.1963769942522049,0.1510142683982849,-0.22658878564834595,-0.42207100987434387,0.2489367574453354,0.000686077808495611
2026-04-30T16:25:53.995000+00:00,S006,9,50,1777566353935,1777566354051,1777566353995,message,1777566353794,-0.2055797427892685,0.1452951431274414,-0.15430504083633423,0.20043757557868958,0.47482532262802124,-0.005277485586702824
2026-04-30T16:25:53.995000+00:00,S006,9,50,1777566353935,1777566354051,1777566353995,message,1777566353814,-0.13921217620372772,0.04650002717971802,-0.07430160045623779,0.48320773243904114,0.5981944799423218,-0.061308424919843674
2026-04-30T16:25:53.995000+00:00,S006,9,50,1777566353935,1777566354051,1777566353995,message,1777566353834,-0.1252976953983307,-0.09828680753707886,-0.03449726104736328,0.3761982321739197,0.6800220012664795,-0.1270236223936081
2026-04-30T16:25:53.995000+00:00,S006,9,50,1777566353935,1777566354051,1777566353995,message,1777566353857,-0.11694097518920898,-0.11317700147628784,0.038211703300476074,0.08335249871015549,0.7539408802986145,-0.19400723278522491
2026-04-30T16:25:53.995000+00:00,S006,9,50,1777566353935,1777566354051,1777566353995,message,1777566353875,-0.08349110186100006,-0.12473857402801514,0.06805551052093506,-0.464584082365036,0.834125280380249,-0.27808788418769836
2026-04-30T16:25:53.995000+00:00,S006,9,50,1777566353935,1777566354051,1777566353995,message,1777566353895,-0.039508670568466187,-0.15957748889923096,0.10467082262039185,-0.9181020855903625,0.8351439833641052,-0.27976855635643005
2026-04-30T16:25:53.995000+00:00,S006,9,50,1777566353935,1777566354051,1777566353995,message,1777566353915,-0.00968247652053833,-0.04393547773361206,0.18544071912765503,-1.023067593574524,0.8137465119361877,-0.3006564974784851
2026-04-30T16:25:53.995000+00:00,S006,9,50,1777566353935,1777566354051,1777566353995,message,1777566353935,0.02475041151046753,-0.022582292556762695,0.1401394009590149,-0.8620063066482544,0.7508258819580078,-0.30446380376815796
2026-04-30T16:25:54.195000+00:00,S006,10,50,1777566354138,1777566354219,1777566354195,message,1777566353956,0.04876592755317688,-0.0373682975769043,0.10628712177276611,-1.001676321029663,0.6876437664031982,-0.29042956233024597
2026-04-30T16:25:54.195000+00:00,S006,10,50,1777566354138,1777566354219,1777566354195,message,1777566353975,0.029568463563919067,-0.05761831998825073,0.13366806507110596,-1.2723530530929565,0.627204179763794,-0.2987791895866394
2026-04-30T16:25:54.195000+00:00,S006,10,50,1777566354138,1777566354219,1777566354195,message,1777566353995,0.02616804838180542,-0.04973959922790527,0.12396383285522461,-1.4284249544143677,0.5644252300262451,-0.2387552708387375
2026-04-30T16:25:54.195000+00:00,S006,10,50,1777566354138,1777566354219,1777566354195,message,1777566354015,0.045832931995391846,0.05381530523300171,0.10414278507232666,-1.4524905681610107,0.48284393548965454,-0.1439414769411087
2026-04-30T16:25:54.195000+00:00,S006,10,50,1777566354138,1777566354219,1777566354195,message,1777566354036,0.06141948699951172,0.12743288278579712,0.04033935070037842,-1.1878464221954346,0.4160608947277069,-0.09627428650856018
2026-04-30T16:25:54.195000+00:00,S006,10,50,1777566354138,1777566354219,1777566354195,message,1777566354056,0.07780298590660095,0.14691346883773804,-0.06622344255447388,-0.8936007022857666,0.39077168703079224,-0.02532794512808323
2026-04-30T16:25:54.195000+00:00,S006,10,50,1777566354138,1777566354219,1777566354195,message,1777566354075,0.1139097511768341,0.014669597148895264,-0.11584913730621338,-1.0300986766815186,0.4684399664402008,-0.016948683187365532
2026-04-30T16:25:54.195000+00:00,S006,10,50,1777566354138,1777566354219,1777566354195,message,1777566354095,0.14608821272850037,-0.06421852111816406,-0.1275201439857483,-1.5541850328445435,0.45828932523727417,0.007455779705196619
2026-04-30T16:25:54.195000+00:00,S006,10,50,1777566354138,1777566354219,1777566354195,message,1777566354116,0.09807413816452026,-0.11059445142745972,-0.06761860847473145,-1.9214413166046143,0.49105894565582275,-0.08743563294410706
2026-04-30T16:25:54.195000+00:00,S006,10,50,1777566354138,1777566354219,1777566354195,message,1777566354136,0.09719470143318176,-0.04267638921737671,-0.0029913783073425293,-1.8239301443099976,0.32733646035194397,0.0006307906587608159
2026-04-30T16:25:54.424000+00:00,S006,11,50,1777566354337,1777566354486,1777566354424,background,1777566354157,0.04743051528930664,-0.046663761138916016,0.11420202255249023,-1.7556220293045044,0.19068464636802673,-0.014044664800167084
2026-04-30T16:25:54.424000+00:00,S006,11,50,1777566354337,1777566354486,1777566354424,background,1777566354176,0.003750324249267578,-0.0033733248710632324,0.0892786979675293,-1.7140358686447144,0.15937581658363342,-0.021436108276247978
2026-04-30T16:25:54.424000+00:00,S006,11,50,1777566354337,1777566354486,1777566354424,background,1777566354196,-0.004595130681991577,-0.02637004852294922,-0.03281348943710327,-1.6578528881072998,0.13933196663856506,-0.014138088561594486
2026-04-30T16:25:54.424000+00:00,S006,11,50,1777566354337,1777566354486,1777566354424,background,1777566354220,-0.0005028247833251953,0.01831275224685669,-0.09542250633239746,-1.6725242137908936,0.17997096478939056,0.0461464487016201
2026-04-30T16:25:54.424000+00:00,S006,11,50,1777566354337,1777566354486,1777566354424,background,1777566354236,-0.010482877492904663,-0.014634907245635986,-0.13289546966552734,-1.737797737121582,0.22225554287433624,0.031789083033800125
2026-04-30T16:25:54.424000+00:00,S006,11,50,1777566354337,1777566354486,1777566354424,background,1777566354256,-0.030444800853729248,-0.10022169351577759,-0.07126319408416748,-1.853101134300232,0.2343319058418274,-0.1045835092663765
2026-04-30T16:25:54.424000+00:00,S006,11,50,1777566354337,1777566354486,1777566354424,background,1777566354276,-0.04071614146232605,-0.15087753534317017,0.01880022883415222,-1.9200018644332886,0.16409823298454285,-0.15991909801959991
2026-04-30T16:25:54.424000+00:00,S006,11,50,1777566354337,1777566354486,1777566354424,background,1777566354296,-0.049842238426208496,-0.12522631883621216,-0.07905921339988708,-1.9195128679275513,0.20912347733974457,-0.16171470284461975
2026-04-30T16:25:54.424000+00:00,S006,11,50,1777566354337,1777566354486,1777566354424,background,1777566354316,-0.002106219530105591,0.02123016119003296,-0.062025249004364014,-2.0109171867370605,0.2810283601284027,-0.01839296706020832
2026-04-30T16:25:54.424000+00:00,S006,11,50,1777566354337,1777566354486,1777566354424,background,1777566354337,-0.012675195932388306,0.03695398569107056,-0.13697397708892822,-2.0455338954925537,0.3510718047618866,-0.091965451836586
2026-04-30T16:25:54.618000+00:00,S006,12,50,1777566354538,1777566354672,1777566354618,background,1777566354357,-0.03955650329589844,-0.047161638736724854,-0.024760082364082336,-2.3578035831451416,0.3608749210834503,-0.04659999907016754
2026-04-30T16:25:54.618000+00:00,S006,12,50,1777566354538,1777566354672,1777566354618,background,1777566354377,-0.04849737882614136,-0.1291791796684265,0.02286680042743683,-2.594306468963623,0.3676914572715759,-0.03916977718472481
2026-04-30T16:25:54.618000+00:00,S006,12,50,1777566354538,1777566354672,1777566354618,background,1777566354397,-0.03162705898284912,-0.15663248300552368,0.06749535351991653,-2.848386526107788,0.4057268798351288,-0.09291859716176987
2026-04-30T16:25:54.618000+00:00,S006,12,50,1777566354538,1777566354672,1777566354618,background,1777566354417,0.010126352310180664,0.013026714324951172,-0.014780998229980469,-2.414907693862915,0.42247405648231506,-0.146073117852211
2026-04-30T16:25:54.618000+00:00,S006,12,50,1777566354538,1777566354672,1777566354618,background,1777566354438,0.06388247013092041,0.12630921602249146,-0.09619534015655518,-1.3191543817520142,0.36066341400146484,-0.1451166570186615
2026-04-30T16:25:54.618000+00:00,S006,12,50,1777566354538,1777566354672,1777566354618,background,1777566354457,0.03773161768913269,0.022771775722503662,-0.08552157878875732,-0.6112305521965027,0.33945780992507935,-0.14286071062088013
2026-04-30T16:25:54.618000+00:00,S006,12,50,1777566354538,1777566354672,1777566354618,background,1777566354477,0.021250605583190918,0.05837053060531616,-0.03434455394744873,-0.0074359942227602005,0.2751147747039795,-0.16638973355293274
2026-04-30T16:25:54.618000+00:00,S006,12,50,1777566354538,1777566354672,1777566354618,background,1777566354497,0.018179476261138916,0.025511205196380615,0.008632183074951172,0.5014640092849731,0.1800316870212555,-0.34728336334228516
2026-04-30T16:25:54.618000+00:00,S006,12,50,1777566354538,1777566354672,1777566354618,background,1777566354517,0.05986282229423523,0.04249739646911621,0.1286863088607788,0.9776930809020996,-0.016835572198033333,-0.4247856140136719
2026-04-30T16:25:54.618000+00:00,S006,12,50,1777566354538,1777566354672,1777566354618,background,1777566354538,0.09392809867858887,0.07300716638565063,0.12103331089019775,1.68125319480896,-0.21833060681819916,-0.39526233077049255
2026-04-30T16:25:54.863000+00:00,S006,13,50,1777566354739,1777566354887,1777566354863,background,1777566354557,0.0971718430519104,0.13269835710525513,0.15366989374160767,1.8149532079696655,-0.3643735647201538,-0.22719688713550568
2026-04-30T16:25:54.863000+00:00,S006,13,50,1777566354739,1777566354887,1777566354863,background,1777566354578,0.04190757870674133,-0.007613122463226318,0.12946242094039917,1.8512340784072876,-0.4235091507434845,-0.271461546421051
2026-04-30T16:25:54.863000+00:00,S006,13,50,1777566354739,1777566354887,1777566354863,background,1777566354598,0.05152040719985962,0.04845911264419556,0.06540703773498535,2.177718162536621,-0.5140239000320435,-0.36592260003089905
2026-04-30T16:25:54.863000+00:00,S006,13,50,1777566354739,1777566354887,1777566354863,background,1777566354617,0.046210527420043945,0.08600163459777832,0.069412961602211,2.907785177230835,-0.6566159129142761,-0.353614866733551
2026-04-30T16:25:54.863000+00:00,S006,13,50,1777566354739,1777566354887,1777566354863,background,1777566354638,0.017272979021072388,0.06252783536911011,0.09621621668338776,2.9727277755737305,-0.7911947965621948,-0.2726161479949951
2026-04-30T16:25:54.863000+00:00,S006,13,50,1777566354739,1777566354887,1777566354863,background,1777566354658,-0.06930989027023315,-0.2316298484802246,0.0944739580154419,1.342175006866455,-0.733357310295105,-0.25911685824394226
2026-04-30T16:25:54.863000+00:00,S006,13,50,1777566354739,1777566354887,1777566354863,background,1777566354678,-0.10315510630607605,-0.2397356629371643,0.05207037925720215,-0.20594775676727295,-0.818230152130127,-0.46174052357673645
2026-04-30T16:25:54.863000+00:00,S006,13,50,1777566354739,1777566354887,1777566354863,background,1777566354698,-0.14709369838237762,0.06049847602844238,-0.1331087052822113,0.02067127265036106,-0.13721376657485962,-0.5121917724609375
2026-04-30T16:25:54.863000+00:00,S006,13,50,1777566354739,1777566354887,1777566354863,background,1777566354718,0.028889253735542297,0.11551189422607422,-0.056261301040649414,0.6448544263839722,-0.7939021587371826,-0.1829911321401596
2026-04-30T16:25:54.863000+00:00,S006,13,50,1777566354739,1777566354887,1777566354863,background,1777566354739,-0.10192501544952393,0.06962376832962036,-0.15384405851364136,1.0175553560256958,-0.3166781961917877,-0.1732691079378128
2026-04-30T16:25:55.022000+00:00,S006,14,50,1777566354939,1777566355079,1777566355022,background,1777566354758,-0.03974069654941559,-0.08904260396957397,-0.034845560789108276,0.905617892742157,-0.36319369077682495,-0.14333948493003845
2026-04-30T16:25:55.022000+00:00,S006,14,50,1777566354939,1777566355079,1777566355022,background,1777566354778,-0.04845011234283447,-0.06435632705688477,0.03215739130973816,0.5030544400215149,-0.27531135082244873,-0.20507577061653137
2026-04-30T16:25:55.022000+00:00,S006,14,50,1777566354939,1777566355079,1777566355022,background,1777566354798,-0.023525118827819824,0.008340597152709961,-0.0324673056602478,0.050615858286619186,-0.05505771562457085,-0.11569145321846008
2026-04-30T16:25:55.022000+00:00,S006,14,50,1777566354939,1777566355079,1777566355022,background,1777566354819,0.030092641711235046,0.16369318962097168,-0.1608588695526123,0.7973502278327942,-0.20182828605175018,-0.1293814331293106
2026-04-30T16:25:55.022000+00:00,S006,14,50,1777566354939,1777566355079,1777566355022,background,1777566354839,0.07237093150615692,0.13661134243011475,0.10278788208961487,1.3668184280395508,-0.38551202416419983,-0.010132214985787868
2026-04-30T16:25:55.022000+00:00,S006,14,50,1777566354939,1777566355079,1777566355022,background,1777566354859,0.0720825344324112,0.0523189902305603,0.21027618646621704,1.2634562253952026,-0.3039846420288086,0.06522820889949799
2026-04-30T16:25:55.022000+00:00,S006,14,50,1777566354939,1777566355079,1777566355022,background,1777566354879,-0.008157268166542053,0.02262091636657715,0.0981694757938385,0.9913250803947449,-0.4129325747489929,-0.06022462248802185
2026-04-30T16:25:55.022000+00:00,S006,14,50,1777566354939,1777566355079,1777566355022,background,1777566354899,-0.06294819712638855,0.03438836336135864,-0.08530044555664062,0.718320906162262,-0.2020912915468216,-0.013494722545146942
2026-04-30T16:25:55.022000+00:00,S006,14,50,1777566354939,1777566355079,1777566355022,background,1777566354919,-0.07156279683113098,-0.17627769708633423,-0.07719415426254272,-0.08172167837619781,-0.06997008621692657,0.00622209720313549
2026-04-30T16:25:55.022000+00:00,S006,14,50,1777566354939,1777566355079,1777566355022,background,1777566354939,-0.021894127130508423,-0.1761559247970581,0.016253888607025146,-0.03699548542499542,-0.06462565809488297,-0.0615474134683609
2026-04-30T16:25:55.205000+00:00,S006,15,50,1777566355140,1777566355266,1777566355205,background,1777566354960,-0.10834531486034393,0.4301334619522095,-0.5696609020233154,-1.2865946292877197,0.7171381115913391,0.45319411158561707
2026-04-30T16:25:55.205000+00:00,S006,15,50,1777566355140,1777566355266,1777566355205,background,1777566354979,-0.2540065050125122,0.21812188625335693,-0.6875668168067932,-0.735984206199646,1.3843660354614258,0.2456541806459427
2026-04-30T16:25:55.205000+00:00,S006,15,50,1777566355140,1777566355266,1777566355205,background,1777566355000,-0.08811374008655548,-0.04370725154876709,-0.23640596866607666,-0.38868534564971924,1.6101070642471313,0.5049577951431274
2026-04-30T16:25:55.205000+00:00,S006,15,50,1777566355140,1777566355266,1777566355205,background,1777566355020,-0.020113050937652588,0.06512516736984253,-0.054102927446365356,0.3237594962120056,1.6160551309585571,0.49228787422180176
2026-04-30T16:25:55.205000+00:00,S006,15,50,1777566355140,1777566355266,1777566355205,background,1777566355040,0.05534768104553223,0.011854052543640137,0.181793212890625,0.33844655752182007,1.4282820224761963,0.4254298508167267
2026-04-30T16:25:55.205000+00:00,S006,15,50,1777566355140,1777566355266,1777566355205,background,1777566355060,0.05731126666069031,-0.16672497987747192,0.43538299202919006,-0.9152095913887024,1.1566509008407593,0.43021440505981445
2026-04-30T16:25:55.205000+00:00,S006,15,50,1777566355140,1777566355266,1777566355205,background,1777566355080,0.06304687261581421,-0.1704813838005066,0.4000347852706909,-1.9170321226119995,0.7873539924621582,0.47662362456321716
2026-04-30T16:25:55.205000+00:00,S006,15,50,1777566355140,1777566355266,1777566355205,background,1777566355100,0.029284149408340454,-0.0001698136329650879,0.21111956238746643,-1.9345829486846924,0.6250097751617432,0.45304349064826965
2026-04-30T16:25:55.205000+00:00,S006,15,50,1777566355140,1777566355266,1777566355205,background,1777566355121,-0.0022568702697753906,0.022894442081451416,0.1072857677936554,-1.805991768836975,0.4744645357131958,0.4657783806324005
2026-04-30T16:25:55.205000+00:00,S006,15,50,1777566355140,1777566355266,1777566355205,background,1777566355140,-0.024279773235321045,-0.03853118419647217,0.0880710780620575,-1.9359028339385986,0.2868165075778961,0.37022534012794495
2026-04-30T16:25:55.425000+00:00,S006,16,50,1777566355341,1777566355458,1777566355425,background,1777566355160,-0.027940809726715088,0.003874361515045166,0.059557974338531494,-1.8478221893310547,0.16114896535873413,0.26489636301994324
2026-04-30T16:25:55.425000+00:00,S006,16,50,1777566355341,1777566355458,1777566355425,background,1777566355180,-0.03206440806388855,-0.010112285614013672,-0.02912038564682007,-1.5905596017837524,0.13277405500411987,0.18931245803833008
2026-04-30T16:25:55.425000+00:00,S006,16,50,1777566355341,1777566355458,1777566355425,background,1777566355201,-0.041962385177612305,-0.0543704628944397,-0.11182785034179688,-1.4873301982879639,0.1860264241695404,0.1253223419189453
2026-04-30T16:25:55.425000+00:00,S006,16,50,1777566355341,1777566355458,1777566355425,background,1777566355221,-0.0009777843952178955,0.012104451656341553,-0.10694383829832077,-1.1618926525115967,0.21740706264972687,0.10907295346260071
2026-04-30T16:25:55.425000+00:00,S006,16,50,1777566355341,1777566355458,1777566355425,background,1777566355240,0.0004875361919403076,0.024152934551239014,-0.1199151799082756,-0.9767525792121887,0.28776881098747253,0.10984649509191513
2026-04-30T16:25:55.425000+00:00,S006,16,50,1777566355341,1777566355458,1777566355425,background,1777566355261,0.004434317350387573,0.022669851779937744,-0.05788338929414749,-1.1003915071487427,0.3357484042644501,0.12572930753231049
2026-04-30T16:25:55.425000+00:00,S006,16,50,1777566355341,1777566355458,1777566355425,background,1777566355281,0.0072085559368133545,-0.0020981431007385254,-0.015471097081899643,-1.0863535404205322,0.33130308985710144,0.1065271869301796
2026-04-30T16:25:55.425000+00:00,S006,16,50,1777566355341,1777566355458,1777566355425,background,1777566355301,-0.01244819164276123,0.01799750328063965,-0.015300155617296696,-1.0179826021194458,0.34920382499694824,0.11253692954778671
2026-04-30T16:25:55.425000+00:00,S006,16,50,1777566355341,1777566355458,1777566355425,background,1777566355321,-0.02266278862953186,0.05021953582763672,-0.05504179000854492,-0.5792025923728943,0.36116012930870056,0.09778279811143875
2026-04-30T16:25:55.425000+00:00,S006,16,50,1777566355341,1777566355458,1777566355425,background,1777566355341,-0.0272272527217865,-0.004435598850250244,-0.03178691864013672,-0.07495884597301483,0.3523627817630768,0.020119430497288704
2026-04-30T16:25:55.600000+00:00,S006,17,50,1777566355542,1777566355651,1777566355600,background,1777566355361,-0.014879554510116577,-0.07317012548446655,0.011629462242126465,-0.04996481537818909,0.3221614360809326,-0.029073042795062065
2026-04-30T16:25:55.600000+00:00,S006,17,50,1777566355542,1777566355651,1777566355600,background,1777566355381,0.006533384323120117,-0.055345356464385986,0.04349088668823242,-0.04450373351573944,0.25887009501457214,-0.10852712392807007
2026-04-30T16:25:55.600000+00:00,S006,17,50,1777566355542,1777566355651,1777566355600,background,1777566355401,0.0026904046535491943,-0.019767940044403076,0.062119245529174805,-0.010420599952340126,0.17774714529514313,-0.14388154447078705
2026-04-30T16:25:55.600000+00:00,S006,17,50,1777566355542,1777566355651,1777566355600,background,1777566355421,0.010202258825302124,0.015110790729522705,0.032822370529174805,0.12452630698680878,0.10487214475870132,-0.16826821863651276
2026-04-30T16:25:55.600000+00:00,S006,17,50,1777566355542,1777566355651,1777566355600,background,1777566355441,0.007586568593978882,-0.0010551810264587402,0.0628054141998291,0.25188717246055603,0.026194756850600243,-0.1711050122976303
2026-04-30T16:25:55.600000+00:00,S006,17,50,1777566355542,1777566355651,1777566355600,background,1777566355462,0.015634983777999878,-0.007803142070770264,0.0891503095626831,0.47494450211524963,-0.07189619541168213,-0.21393583714962006
2026-04-30T16:25:55.600000+00:00,S006,17,50,1777566355542,1777566355651,1777566355600,background,1777566355482,0.011294662952423096,-0.025475263595581055,0.07292163372039795,0.47128772735595703,-0.1355379819869995,-0.215057834982872
2026-04-30T16:25:55.600000+00:00,S006,17,50,1777566355542,1777566355651,1777566355600,background,1777566355502,-0.01614430546760559,0.008996367454528809,-0.012779593467712402,0.52494215965271,-0.12578153610229492,-0.21993854641914368
2026-04-30T16:25:55.600000+00:00,S006,17,50,1777566355542,1777566355651,1777566355600,background,1777566355522,-0.009036719799041748,0.04851800203323364,-0.04476654529571533,0.6330252289772034,-0.08889230340719223,-0.1910780817270279
2026-04-30T16:25:55.600000+00:00,S006,17,50,1777566355542,1777566355651,1777566355600,background,1777566355542,0.00874096155166626,0.012467026710510254,0.016062378883361816,0.5829364657402039,-0.1090148463845253,-0.15296302735805511
2026-04-30T16:25:55.783000+00:00,S006,18,50,1777566355743,1777566355844,1777566355783,background,1777566355562,-0.011060714721679688,-0.11951738595962524,0.03153437376022339,0.43174564838409424,-0.10081375390291214,-0.21828588843345642
2026-04-30T16:25:55.783000+00:00,S006,18,50,1777566355743,1777566355844,1777566355783,background,1777566355582,-0.034968405961990356,-0.060213565826416016,-0.03949195146560669,0.5247386693954468,-0.07529062777757645,-0.2715967297554016
2026-04-30T16:25:55.783000+00:00,S006,18,50,1777566355743,1777566355844,1777566355783,background,1777566355602,-0.030233830213546753,0.03912609815597534,-0.10414666682481766,0.9582483172416687,-0.018179630860686302,-0.3119713366031647
2026-04-30T16:25:55.783000+00:00,S006,18,50,1777566355743,1777566355844,1777566355783,background,1777566355622,-0.009868741035461426,0.036484479904174805,-0.0924302339553833,1.2252089977264404,0.031681060791015625,-0.32890787720680237
2026-04-30T16:25:55.783000+00:00,S006,18,50,1777566355743,1777566355844,1777566355783,background,1777566355642,-0.0005234479904174805,0.012625932693481445,0.0032965093851089478,0.9607918858528137,0.08203960955142975,-0.30214259028434753
2026-04-30T16:25:55.783000+00:00,S006,18,50,1777566355743,1777566355844,1777566355783,background,1777566355663,0.023375719785690308,-0.055010080337524414,0.11556965112686157,0.4266347587108612,0.025982694700360298,-0.31992992758750916
2026-04-30T16:25:55.783000+00:00,S006,18,50,1777566355743,1777566355844,1777566355783,background,1777566355683,0.01649022102355957,-0.05732154846191406,0.1357608437538147,-0.10082852840423584,-0.007493697106838226,-0.3154260218143463
2026-04-30T16:25:55.783000+00:00,S006,18,50,1777566355743,1777566355844,1777566355783,background,1777566355703,-0.010163933038711548,-0.06791037321090698,0.03481195867061615,-0.00623411126434803,-0.05596144124865532,-0.412356436252594
2026-04-30T16:25:55.783000+00:00,S006,18,50,1777566355743,1777566355844,1777566355783,background,1777566355723,-0.03068050742149353,0.014923095703125,-0.05401259660720825,0.13813266158103943,-0.011217176914215088,-0.3959663212299347
2026-04-30T16:25:55.783000+00:00,S006,18,50,1777566355743,1777566355844,1777566355783,background,1777566355743,0.005766630172729492,-0.00011050701141357422,-0.05307282507419586,0.16406358778476715,-0.004715525545179844,-0.43256139755249023
2026-04-30T16:25:56.041000+00:00,S006,19,50,1777566355944,1777566356077,1777566356041,background,1777566355763,0.03197053074836731,-0.04289817810058594,0.005736783146858215,0.008417269214987755,-0.02955068089067936,-0.44702380895614624
2026-04-30T16:25:56.041000+00:00,S006,19,50,1777566355944,1777566356077,1777566356041,background,1777566355783,0.010543584823608398,-0.03436434268951416,0.061961010098457336,-0.03943946957588196,-0.09665538370609283,-0.4564485549926758
2026-04-30T16:25:56.041000+00:00,S006,19,50,1777566355944,1777566356077,1777566356041,background,1777566355803,-0.004556566476821899,-0.01806962490081787,0.10824672877788544,0.07138531655073166,-0.17466595768928528,-0.4516020119190216
2026-04-30T16:25:56.041000+00:00,S006,19,50,1777566355944,1777566356077,1777566356041,background,1777566355824,-0.027686282992362976,0.0014529824256896973,0.027775287628173828,-0.22132964432239532,-0.12748116254806519,-0.4183938503265381
2026-04-30T16:25:56.041000+00:00,S006,19,50,1777566355944,1777566356077,1777566356041,background,1777566355843,-0.011178895831108093,-0.02360057830810547,0.004743821918964386,-0.5247718095779419,-0.15094250440597534,-0.4139009416103363
2026-04-30T16:25:56.041000+00:00,S006,19,50,1777566355944,1777566356077,1777566356041,background,1777566355864,-0.004924342036247253,0.06721538305282593,-0.03490632772445679,-0.30352360010147095,-0.1231040358543396,-0.38647374510765076
2026-04-30T16:25:56.041000+00:00,S006,19,50,1777566355944,1777566356077,1777566356041,background,1777566355884,0.009377479553222656,0.09269016981124878,-0.03588034212589264,-0.0025205984711647034,-0.07734905183315277,-0.3248036503791809
2026-04-30T16:25:56.041000+00:00,S006,19,50,1777566355944,1777566356077,1777566356041,background,1777566355904,-0.007011830806732178,0.005553722381591797,0.030508145689964294,-0.1018354669213295,-0.10240396112203598,-0.2878051996231079
2026-04-30T16:25:56.041000+00:00,S006,19,50,1777566355944,1777566356077,1777566356041,background,1777566355924,-0.03831656277179718,0.057418763637542725,0.010946936905384064,-0.042847245931625366,-0.0772201269865036,-0.22771194577217102
2026-04-30T16:25:56.041000+00:00,S006,19,50,1777566355944,1777566356077,1777566356041,background,1777566355944,-0.02295638620853424,0.0812273621559143,0.003482826054096222,0.019681641831994057,-0.07213988155126572,-0.1614851951599121
2026-04-30T16:25:56.211000+00:00,S006,20,50,1777566356145,1777566356270,1777566356211,background,1777566355964,-0.009523630142211914,0.05455923080444336,0.011388659477233887,-0.11051950603723526,-0.08432760834693909,-0.10463709384202957
2026-04-30T16:25:56.211000+00:00,S006,20,50,1777566356145,1777566356270,1777566356211,background,1777566355984,-0.007078096270561218,0.05778706073760986,-0.008237600326538086,-0.07713358104228973,-0.06801696121692657,-0.07063982635736465
2026-04-30T16:25:56.211000+00:00,S006,20,50,1777566356145,1777566356270,1777566356211,background,1777566356004,-0.015710845589637756,0.032964229583740234,0.010834060609340668,0.10081351548433304,-0.0858585387468338,-0.027758879587054253
2026-04-30T16:25:56.211000+00:00,S006,20,50,1777566356145,1777566356270,1777566356211,background,1777566356024,-0.015892088413238525,0.028739333152770996,0.00681757926940918,0.14731444418430328,-0.07746905088424683,0.011156188324093819
2026-04-30T16:25:56.211000+00:00,S006,20,50,1777566356145,1777566356270,1777566356211,background,1777566356044,-0.006821379065513611,0.06752526760101318,-0.009690463542938232,0.14684545993804932,-0.0574202835559845,0.06877266615629196
2026-04-30T16:25:56.211000+00:00,S006,20,50,1777566356145,1777566356270,1777566356211,background,1777566356064,-0.014635711908340454,0.07481461763381958,-0.03576827049255371,0.25720417499542236,0.01925528235733509,0.1278877556324005
2026-04-30T16:25:56.211000+00:00,S006,20,50,1777566356145,1777566356270,1777566356211,background,1777566356085,-0.03001163899898529,-0.006966650485992432,-0.09218692034482956,0.4093915820121765,0.10120976716279984,0.15988045930862427
2026-04-30T16:25:56.211000+00:00,S006,20,50,1777566356145,1777566356270,1777566356211,background,1777566356105,-0.04133862257003784,-0.09322553873062134,-0.05380795896053314,0.3039780855178833,0.14857888221740723,0.0911073237657547
2026-04-30T16:25:56.211000+00:00,S006,20,50,1777566356145,1777566356270,1777566356211,background,1777566356125,0.01698330044746399,-0.06509912014007568,0.03606593608856201,0.2076757848262787,0.09456407278776169,0.04165646806359291
2026-04-30T16:25:56.211000+00:00,S006,20,50,1777566356145,1777566356270,1777566356211,background,1777566356145,0.022774815559387207,0.007983744144439697,0.07828831672668457,0.36590829491615295,0.00952744111418724,-0.00107885233592242
2026-04-30T16:25:56.415000+00:00,S006,21,50,1777566356346,1777566356464,1777566356415,background,1777566356165,-0.009086862206459045,0.0035993456840515137,0.0797501802444458,0.3329029381275177,-0.02204136550426483,-0.020830346271395683
2026-04-30T16:25:56.415000+00:00,S006,21,50,1777566356346,1777566356464,1777566356415,background,1777566356185,-0.01277761161327362,-0.04437834024429321,0.030566230416297913,0.18220505118370056,-0.03487098962068558,-0.038564443588256836
2026-04-30T16:25:56.415000+00:00,S006,21,50,1777566356346,1777566356464,1777566356415,background,1777566356205,-0.017398446798324585,-0.03451448678970337,-0.04286409914493561,0.1619437038898468,-0.03487730771303177,-0.06996486335992813
2026-04-30T16:25:56.415000+00:00,S006,21,50,1777566356346,1777566356464,1777566356415,background,1777566356225,-0.006982088088989258,0.060413658618927,-0.07592515647411346,0.4877804219722748,-0.003881803946569562,-0.06488201022148132
2026-04-30T16:25:56.415000+00:00,S006,21,50,1777566356346,1777566356464,1777566356415,background,1777566356245,0.014690235257148743,0.032919883728027344,-0.007576942443847656,0.8763651847839355,-0.018153341487050056,-0.08978816121816635
2026-04-30T16:25:56.415000+00:00,S006,21,50,1777566356346,1777566356464,1777566356415,background,1777566356267,0.015693992376327515,-0.029414653778076172,0.1032542884349823,0.8209383487701416,-0.07870422303676605,-0.07806167751550674
2026-04-30T16:25:56.415000+00:00,S006,21,50,1777566356346,1777566356464,1777566356415,background,1777566356285,-0.011059671640396118,-0.01251763105392456,0.08326859772205353,0.6022947430610657,-0.12248009443283081,-0.08687514066696167
2026-04-30T16:25:56.415000+00:00,S006,21,50,1777566356346,1777566356464,1777566356415,background,1777566356306,-0.016695350408554077,-0.0033571720123291016,0.01689058542251587,0.3896122872829437,-0.08065624535083771,-0.09932834655046463
2026-04-30T16:25:56.415000+00:00,S006,21,50,1777566356346,1777566356464,1777566356415,background,1777566356326,-0.0013497471809387207,-0.0330166220664978,-0.033258259296417236,0.3278197646141052,-0.07091832160949707,-0.1203470304608345
2026-04-30T16:25:56.415000+00:00,S006,21,50,1777566356346,1777566356464,1777566356415,background,1777566356346,0.0036126673221588135,-0.01643204689025879,-0.04322338104248047,0.6205224990844727,-0.0969943255186081,-0.15313820540905
2026-04-30T16:25:56.653000+00:00,S006,22,50,1777566356547,1777566356651,1777566356653,background,1777566356366,-0.0032289475202560425,0.014993369579315186,-0.011891484260559082,0.9517555236816406,-0.10448206961154938,-0.15354689955711365
2026-04-30T16:25:56.653000+00:00,S006,22,50,1777566356547,1777566356651,1777566356653,background,1777566356386,-0.011982396245002747,0.017409205436706543,0.014989763498306274,1.0456229448318481,-0.10828251391649246,-0.15681347250938416
2026-04-30T16:25:56.653000+00:00,S006,22,50,1777566356547,1777566356651,1777566356653,background,1777566356406,-0.003159463405609131,0.057392656803131104,0.05553525686264038,0.8566561937332153,-0.07605171203613281,-0.08406369388103485
2026-04-30T16:25:56.653000+00:00,S006,22,50,1777566356547,1777566356651,1777566356653,background,1777566356426,-0.023267418146133423,0.02021735906600952,-0.008677661418914795,0.4803736209869385,-0.028308546170592308,-0.022521452978253365
2026-04-30T16:25:56.653000+00:00,S006,22,50,1777566356547,1777566356651,1777566356653,background,1777566356446,-0.028910130262374878,0.03216266632080078,-0.005415678024291992,0.11709742248058319,0.019281571730971336,0.0604267455637455
2026-04-30T16:25:56.653000+00:00,S006,22,50,1777566356547,1777566356651,1777566356653,background,1777566356467,-0.01277834177017212,0.02610945701599121,-0.004301548004150391,0.1366753876209259,0.028387604281306267,0.06462431699037552
2026-04-30T16:25:56.653000+00:00,S006,22,50,1777566356547,1777566356651,1777566356653,background,1777566356487,-0.022134989500045776,-0.005520999431610107,-0.028226405382156372,0.25616103410720825,0.0667114406824112,0.07543600350618362
2026-04-30T16:25:56.653000+00:00,S006,22,50,1777566356547,1777566356651,1777566356653,background,1777566356507,-0.026641055941581726,-0.013869047164916992,-0.026920080184936523,0.2597954273223877,0.09082959592342377,0.06724587827920914
2026-04-30T16:25:56.653000+00:00,S006,22,50,1777566356547,1777566356651,1777566356653,background,1777566356527,-0.0029891282320022583,-0.006495416164398193,-0.007835865020751953,0.20901401340961456,0.06737396121025085,0.06831609457731247
2026-04-30T16:25:56.653000+00:00,S006,22,50,1777566356547,1777566356651,1777566356653,background,1777566356547,0.011817574501037598,-0.026617765426635742,0.05942848324775696,0.09980683773756027,0.01370620634406805,0.048114098608493805
2026-04-30T16:25:56.827000+00:00,S006,23,50,1777566356748,1777566356882,1777566356827,background,1777566356567,0.008781254291534424,-0.03387153148651123,0.061315715312957764,0.029380077496170998,-0.019798414781689644,0.03566664457321167
2026-04-30T16:25:56.827000+00:00,S006,23,50,1777566356748,1777566356882,1777566356827,background,1777566356587,0.011467337608337402,0.01316380500793457,0.04952073097229004,0.05074795335531235,-0.05240543559193611,0.027158644050359726
2026-04-30T16:25:56.827000+00:00,S006,23,50,1777566356748,1777566356882,1777566356827,background,1777566356607,-0.0023874789476394653,0.030762791633605957,-0.0015223324298858643,0.13307930529117584,-0.04665304347872734,0.03156207501888275
2026-04-30T16:25:56.827000+00:00,S006,23,50,1777566356748,1777566356882,1777566356827,background,1777566356627,-0.02541440725326538,0.0008652806282043457,-0.0351431667804718,0.1682537943124771,-0.020856069400906563,0.014983417466282845
2026-04-30T16:25:56.827000+00:00,S006,23,50,1777566356748,1777566356882,1777566356827,background,1777566356650,-0.015031218528747559,-0.040229618549346924,0.0004036426544189453,0.070659339427948,-0.04861465469002724,-0.011911686509847641
2026-04-30T16:25:56.827000+00:00,S006,23,50,1777566356748,1777566356882,1777566356827,background,1777566356667,0.01327069103717804,-0.03657156229019165,0.023241639137268066,-0.046335190534591675,-0.10124780982732773,-0.028732478618621826
2026-04-30T16:25:56.827000+00:00,S006,23,50,1777566356748,1777566356882,1777566356827,background,1777566356687,0.004052475094795227,-0.0012981295585632324,-0.01010015606880188,-0.15519003570079803,-0.04884650185704231,-0.022246988490223885
2026-04-30T16:25:56.827000+00:00,S006,23,50,1777566356748,1777566356882,1777566356827,background,1777566356708,-0.018549293279647827,0.023023903369903564,-0.036473870277404785,-0.23095881938934326,0.005892567802220583,0.02931324765086174
2026-04-30T16:25:56.827000+00:00,S006,23,50,1777566356748,1777566356882,1777566356827,background,1777566356727,-0.006330549716949463,0.018314063549041748,0.017226845026016235,-0.24258458614349365,0.014605898410081863,0.04058161377906799
2026-04-30T16:25:56.827000+00:00,S006,23,50,1777566356748,1777566356882,1777566356827,background,1777566356748,0.0002734959125518799,0.047169506549835205,0.03936600685119629,-0.07876130938529968,-0.019114287570118904,0.04524092376232147
2026-04-30T16:25:57.025000+00:00,S006,24,50,1777566356949,1777566357076,1777566357025,background,1777566356768,-0.03703239560127258,0.005936324596405029,-0.0011826753616333008,-0.10752451419830322,-0.0025366414338350296,0.013162135146558285
2026-04-30T16:25:57.025000+00:00,S006,24,50,1777566356949,1777566357076,1777566357025,background,1777566356788,-0.019151762127876282,-0.04845994710922241,-0.0016661286354064941,-0.3867063522338867,0.0026350272819399834,0.07711794972419739
2026-04-30T16:25:57.025000+00:00,S006,24,50,1777566356949,1777566357076,1777566357025,background,1777566356808,0.019061550498008728,0.03889107704162598,-0.0009890198707580566,-0.3237247169017792,-0.03525646775960922,0.09696515649557114
2026-04-30T16:25:57.025000+00:00,S006,24,50,1777566356949,1777566357076,1777566357025,background,1777566356828,0.027902081608772278,0.028932273387908936,0.05639231204986572,-0.09667345881462097,-0.09467802196741104,0.0931701511144638
2026-04-30T16:25:57.025000+00:00,S006,24,50,1777566356949,1777566357076,1777566357025,background,1777566356848,-0.0025269389152526855,0.03642463684082031,0.02551630139350891,0.09749653935432434,-0.1120346412062645,0.06451863795518875
2026-04-30T16:25:57.025000+00:00,S006,24,50,1777566356949,1777566357076,1777566357025,background,1777566356868,-0.0189904123544693,-0.019851088523864746,-0.01790294051170349,0.21202819049358368,-0.1227608248591423,0.04870569705963135
2026-04-30T16:25:57.025000+00:00,S006,24,50,1777566356949,1777566357076,1777566357025,background,1777566356889,-0.012898162007331848,-0.040442824363708496,-0.03095686435699463,-0.0508258119225502,-0.07416003942489624,0.054567527025938034
2026-04-30T16:25:57.025000+00:00,S006,24,50,1777566356949,1777566357076,1777566357025,background,1777566356909,-0.019837647676467896,-0.03661000728607178,-0.05727112293243408,-0.18234282732009888,-0.03477340564131737,0.017108246684074402
2026-04-30T16:25:57.025000+00:00,S006,24,50,1777566356949,1777566357076,1777566357025,background,1777566356929,-0.017333969473838806,-0.03573119640350342,-0.03903266787528992,-0.1945454180240631,0.0215520691126585,-0.02600497379899025
2026-04-30T16:25:57.025000+00:00,S006,24,50,1777566356949,1777566357076,1777566357025,background,1777566356948,-0.00663641095161438,-0.03923523426055908,-0.02672407031059265,-0.09461323916912079,0.023671679198741913,-0.029623571783304214
2026-04-30T16:25:57.183000+00:00,S006,25,50,1777566357150,1777566357244,1777566357183,background,1777566356969,0.0048283785581588745,0.009640097618103027,0.005821824073791504,0.06682811677455902,0.01618598960340023,-0.03670363873243332
2026-04-30T16:25:57.183000+00:00,S006,25,50,1777566357150,1777566357244,1777566357183,background,1777566356989,0.005594626069068909,0.027628779411315918,0.0072006285190582275,0.06947742402553558,0.027243852615356445,-0.014958023093640804
2026-04-30T16:25:57.183000+00:00,S006,25,50,1777566357150,1777566357244,1777566357183,background,1777566357009,-0.00750325620174408,0.010423898696899414,-0.0012127459049224854,-0.02988111600279808,0.02342267334461212,0.03137645125389099
2026-04-30T16:25:57.183000+00:00,S006,25,50,1777566357150,1777566357244,1777566357183,background,1777566357029,-0.012253135442733765,0.052352726459503174,-0.01011192798614502,0.02342311665415764,0.04437277466058731,0.0598028227686882
2026-04-30T16:25:57.183000+00:00,S006,25,50,1777566357150,1777566357244,1777566357183,background,1777566357049,-0.018239587545394897,0.029158949851989746,0.005202770233154297,0.021134931594133377,0.07040528208017349,0.09238643944263458
2026-04-30T16:25:57.183000+00:00,S006,25,50,1777566357150,1777566357244,1777566357183,background,1777566357069,-0.006609678268432617,0.0969538688659668,0.00818699598312378,0.1166481301188469,0.07996915280818939,0.156381294131279
2026-04-30T16:25:57.183000+00:00,S006,25,50,1777566357150,1777566357244,1777566357183,background,1777566357089,-0.0074086785316467285,0.1399056315422058,-0.0016861557960510254,0.23958443105220795,0.11467516422271729,0.2620042562484741
2026-04-30T16:25:57.183000+00:00,S006,25,50,1777566357150,1777566357244,1777566357183,background,1777566357109,-0.004825860261917114,0.11730372905731201,0.01561802625656128,0.1438446044921875,0.14664211869239807,0.39811304211616516
2026-04-30T16:25:57.183000+00:00,S006,25,50,1777566357150,1777566357244,1777566357183,background,1777566357129,-0.02698396146297455,0.09358078241348267,0.004781842231750488,0.010967778041958809,0.19582799077033997,0.5201985239982605
2026-04-30T16:25:57.183000+00:00,S006,25,50,1777566357150,1777566357244,1777566357183,background,1777566357149,-0.005444079637527466,0.10918867588043213,0.07055175304412842,-0.22162657976150513,0.23622743785381317,0.6566717624664307
2026-04-30T16:25:57.394000+00:00,S006,26,50,1777566357351,1777566357455,1777566357394,background,1777566357170,0.007449239492416382,0.09013718366622925,0.08599051833152771,-0.40771761536598206,0.21823488175868988,0.7507255673408508
2026-04-30T16:25:57.394000+00:00,S006,26,50,1777566357351,1777566357455,1777566357394,background,1777566357190,0.0146542489528656,0.07721757888793945,0.09465169906616211,-0.36298105120658875,0.14745715260505676,0.7797843217849731
2026-04-30T16:25:57.394000+00:00,S006,26,50,1777566357351,1777566357455,1777566357394,background,1777566357210,0.017182141542434692,0.03921633958816528,0.07387205958366394,-0.24150201678276062,0.09609276801347733,0.767095685005188
2026-04-30T16:25:57.394000+00:00,S006,26,50,1777566357351,1777566357455,1777566357394,background,1777566357230,0.02610224485397339,-0.03477680683135986,0.10148823261260986,-0.2447899580001831,-0.01833926886320114,0.7139810919761658
2026-04-30T16:25:57.394000+00:00,S006,26,50,1777566357351,1777566357455,1777566357394,background,1777566357250,0.0197942852973938,-0.06563931703567505,0.08514553308486938,-0.26504969596862793,-0.12146991491317749,0.6002795696258545
2026-04-30T16:25:57.394000+00:00,S006,26,50,1777566357351,1777566357455,1777566357394,background,1777566357270,0.00046637654304504395,-0.10380154848098755,0.0394195020198822,-0.2857342064380646,-0.1691495180130005,0.537643551826477
2026-04-30T16:25:57.394000+00:00,S006,26,50,1777566357351,1777566357455,1777566357394,background,1777566357290,0.0017722547054290771,-0.14432305097579956,0.036139607429504395,-0.4525783061981201,-0.19648107886314392,0.41216859221458435
2026-04-30T16:25:57.394000+00:00,S006,26,50,1777566357351,1777566357455,1777566357394,background,1777566357310,0.039782434701919556,-0.16595977544784546,0.09677854180335999,-0.6873838901519775,-0.3034985363483429,0.2518925368785858
2026-04-30T16:25:57.394000+00:00,S006,26,50,1777566357351,1777566357455,1777566357394,background,1777566357330,0.040474504232406616,-0.12604212760925293,0.15708374977111816,-1.0510787963867188,-0.4191894829273224,0.14468112587928772
2026-04-30T16:25:57.394000+00:00,S006,26,50,1777566357351,1777566357455,1777566357394,background,1777566357350,0.01785069704055786,-0.1325860619544983,0.06546765565872192,-1.2328158617019653,-0.47857722640037537,0.015216710045933723
2026-04-30T16:25:57.589000+00:00,S006,27,50,1777566357552,1777566357650,1777566357589,background,1777566357371,-0.007070392370223999,-0.12904560565948486,0.00882217288017273,-1.362367868423462,-0.48494598269462585,-0.11194673180580139
2026-04-30T16:25:57.589000+00:00,S006,27,50,1777566357552,1777566357650,1777566357589,background,1777566357391,-0.013141512870788574,-0.10713344812393188,-0.03141188621520996,-1.3513538837432861,-0.46251553297042847,-0.23258057236671448
2026-04-30T16:25:57.589000+00:00,S006,27,50,1777566357552,1777566357650,1777566357589,background,1777566357411,-0.046329885721206665,-0.13316553831100464,-0.049447283148765564,-1.3653496503829956,-0.4169750511646271,-0.4153022766113281
2026-04-30T16:25:57.589000+00:00,S006,27,50,1777566357552,1777566357650,1777566357589,background,1777566357431,-0.03803256154060364,-0.10668778419494629,-0.04569774866104126,-1.3478803634643555,-0.36204051971435547,-0.5297122597694397
2026-04-30T16:25:57.589000+00:00,S006,27,50,1777566357552,1777566357650,1777566357589,background,1777566357451,-0.0294036865234375,-0.05788689851760864,-0.02652670443058014,-1.155985951423645,-0.3958320617675781,-0.652263343334198
2026-04-30T16:25:57.589000+00:00,S006,27,50,1777566357552,1777566357650,1777566357589,background,1777566357471,-0.06980407238006592,-0.09032201766967773,-0.10458797216415405,-1.0113718509674072,-0.35473573207855225,-0.7909871935844421
2026-04-30T16:25:57.589000+00:00,S006,27,50,1777566357552,1777566357650,1777566357589,background,1777566357491,-0.09159237146377563,-0.02292811870574951,-0.09972267597913742,-0.8880115151405334,-0.2734229564666748,-0.8537350296974182
2026-04-30T16:25:57.589000+00:00,S006,27,50,1777566357552,1777566357650,1777566357589,background,1777566357512,-0.06850442290306091,0.06781214475631714,-0.10397744923830032,-0.626022219657898,-0.2213747203350067,-0.88776695728302
2026-04-30T16:25:57.589000+00:00,S006,27,50,1777566357552,1777566357650,1777566357589,background,1777566357531,-0.08306591212749481,0.05043601989746094,-0.1262068748474121,-0.4482027292251587,-0.11262665688991547,-0.8790285587310791
2026-04-30T16:25:57.589000+00:00,S006,27,50,1777566357552,1777566357650,1777566357589,background,1777566357551,-0.035446807742118835,0.08267778158187866,-0.15190976858139038,0.023956282064318657,-0.0130563173443079,-0.8391821980476379
2026-04-30T16:25:57.847000+00:00,S006,28,50,1777566357752,1777566357907,1777566357847,background,1777566357571,-0.031094074249267578,0.12449133396148682,-0.14021748304367065,0.7620289921760559,0.03802897036075592,-0.7866523265838623
2026-04-30T16:25:57.847000+00:00,S006,28,50,1777566357752,1777566357907,1777566357847,background,1777566357592,-0.04143321514129639,0.07693296670913696,-0.0979698896408081,1.2427937984466553,0.09190266579389572,-0.7411168813705444
2026-04-30T16:25:57.847000+00:00,S006,28,50,1777566357752,1777566357907,1777566357847,background,1777566357611,-0.04991890490055084,-0.014693975448608398,-0.03903043270111084,1.0525764226913452,0.1434173583984375,-0.7120108008384705
2026-04-30T16:25:57.847000+00:00,S006,28,50,1777566357752,1777566357907,1777566357847,background,1777566357632,-0.04626794159412384,-0.012344777584075928,0.02531249076128006,0.6938315629959106,0.13440196216106415,-0.690920352935791
2026-04-30T16:25:57.847000+00:00,S006,28,50,1777566357752,1777566357907,1777566357847,background,1777566357652,-0.05129501223564148,-0.008383095264434814,0.02565695345401764,0.6324763298034668,0.14632485806941986,-0.698876142501831
2026-04-30T16:25:57.847000+00:00,S006,28,50,1777566357752,1777566357907,1777566357847,background,1777566357673,0.031264834105968475,0.08288854360580444,0.08819806575775146,0.6571646332740784,0.2177603840827942,-0.3238106071949005
2026-04-30T16:25:57.847000+00:00,S006,28,50,1777566357752,1777566357907,1777566357847,background,1777566357692,0.26149222254753113,0.18990027904510498,0.18262113630771637,0.49531078338623047,-0.02935764007270336,0.15920206904411316
2026-04-30T16:25:57.847000+00:00,S006,28,50,1777566357752,1777566357907,1777566357847,background,1777566357712,-0.0399133563041687,0.11700642108917236,0.03770262002944946,0.41656559705734253,0.11020824313163757,0.13956710696220398
2026-04-30T16:25:57.847000+00:00,S006,28,50,1777566357752,1777566357907,1777566357847,background,1777566357732,-0.04734182357788086,-0.017975449562072754,-0.04796719551086426,-0.08227747678756714,0.23952342569828033,0.3203384280204773
2026-04-30T16:25:57.847000+00:00,S006,28,50,1777566357752,1777566357907,1777566357847,background,1777566357752,0.003823190927505493,-0.0028802156448364258,-0.013316169381141663,-0.15433037281036377,0.1643379032611847,0.21041055023670197
2026-04-30T16:25:58.015000+00:00,S006,29,50,1777566357953,1777566358073,1777566358015,background,1777566357773,-0.4451208710670471,0.21465528011322021,-0.03921443223953247,0.671611487865448,0.5829681158065796,-0.12997008860111237
2026-04-30T16:25:58.015000+00:00,S006,29,50,1777566357953,1777566358073,1777566358015,background,1777566357795,0.3031269907951355,-0.14856034517288208,0.060462892055511475,0.27161961793899536,0.05404385179281235,0.27022892236709595
2026-04-30T16:25:58.015000+00:00,S006,29,50,1777566357953,1777566358073,1777566358015,background,1777566357812,-0.006972983479499817,0.019391655921936035,0.00022977590560913086,0.037242259830236435,0.147379532456398,0.04488490894436836
2026-04-30T16:25:58.015000+00:00,S006,29,50,1777566357953,1777566358073,1777566358015,background,1777566357833,-0.048048898577690125,-0.05806320905685425,-0.03712564706802368,-0.23082834482192993,0.15486089885234833,0.016448529437184334
2026-04-30T16:25:58.015000+00:00,S006,29,50,1777566357953,1777566358073,1777566358015,background,1777566357853,-0.2119065523147583,0.11312621831893921,0.06294666230678558,-0.366208016872406,0.8553488850593567,0.44493669271469116
2026-04-30T16:25:58.015000+00:00,S006,29,50,1777566357953,1777566358073,1777566358015,background,1777566357873,0.06066814064979553,0.07094866037368774,-0.019005730748176575,-0.19292329251766205,0.11354423314332962,-0.20525899529457092
2026-04-30T16:25:58.015000+00:00,S006,29,50,1777566357953,1777566358073,1777566358015,background,1777566357893,-0.03862153738737106,0.015180110931396484,0.03371304273605347,0.20665313303470612,0.1756538301706314,-0.2535891830921173
2026-04-30T16:25:58.015000+00:00,S006,29,50,1777566357953,1777566358073,1777566358015,background,1777566357913,-0.050198331475257874,0.05654799938201904,0.031445324420928955,0.3804395794868469,0.15396158397197723,-0.18059448897838593
2026-04-30T16:25:58.015000+00:00,S006,29,50,1777566357953,1777566358073,1777566358015,background,1777566357933,-0.014540433883666992,0.012013673782348633,0.017436087131500244,0.45628321170806885,0.04454466328024864,-0.25657305121421814
2026-04-30T16:25:58.015000+00:00,S006,29,50,1777566357953,1777566358073,1777566358015,background,1777566357953,0.018191762268543243,0.002755463123321533,0.03831028938293457,0.5617755651473999,-0.00930875539779663,-0.24199362099170685
2026-04-30T16:25:58.205000+00:00,S006,30,50,1777566358154,1777566358265,1777566358205,background,1777566357973,0.009216509759426117,0.039295315742492676,0.007351934909820557,0.5238038897514343,-0.1351202130317688,-0.34335413575172424
2026-04-30T16:25:58.205000+00:00,S006,30,50,1777566358154,1777566358265,1777566358205,background,1777566357994,-0.03079940378665924,-0.15290027856826782,-0.06999903917312622,0.04209400713443756,0.08415914326906204,-0.3099433481693268
2026-04-30T16:25:58.205000+00:00,S006,30,50,1777566358154,1777566358265,1777566358205,background,1777566358013,0.1282162070274353,-0.057631850242614746,0.00031501054763793945,-0.3228570818901062,0.14464382827281952,-0.043100710958242416
2026-04-30T16:25:58.205000+00:00,S006,30,50,1777566358154,1777566358265,1777566358205,background,1777566358033,0.0020086094737052917,0.08150315284729004,0.026115447282791138,0.05099721997976303,0.05805232748389244,-0.11839764565229416
2026-04-30T16:25:58.205000+00:00,S006,30,50,1777566358154,1777566358265,1777566358205,background,1777566358054,-0.021345607936382294,0.08554744720458984,0.055215924978256226,0.339085191488266,0.11886510998010635,-0.09894229471683502
2026-04-30T16:25:58.205000+00:00,S006,30,50,1777566358154,1777566358265,1777566358205,background,1777566358076,0.05223460495471954,-0.020578861236572266,0.006516635417938232,0.19528089463710785,0.08924733847379684,-0.05969614535570145
2026-04-30T16:25:58.205000+00:00,S006,30,50,1777566358154,1777566358265,1777566358205,background,1777566358094,0.023167505860328674,-0.021335721015930176,-0.003677546977996826,-0.008265037089586258,0.13901831209659576,-0.027121584862470627
2026-04-30T16:25:58.205000+00:00,S006,30,50,1777566358154,1777566358265,1777566358205,background,1777566358114,0.03381709009408951,0.025492846965789795,-0.018993854522705078,-0.13142718374729156,0.041853420436382294,-0.07248363643884659
2026-04-30T16:25:58.205000+00:00,S006,30,50,1777566358154,1777566358265,1777566358205,background,1777566358134,-0.004016347229480743,0.02165400981903076,0.0032569468021392822,-0.180186465382576,0.042440686374902725,-0.149482861161232
2026-04-30T16:25:58.205000+00:00,S006,30,50,1777566358154,1777566358265,1777566358205,background,1777566358154,0.007429629564285278,0.026002585887908936,0.013652920722961426,-0.047435611486434937,-0.051789600402116776,-0.18933936953544617
2026-04-30T16:25:58.428000+00:00,S006,31,50,1777566358355,1777566358454,1777566358428,background,1777566358174,0.01098582148551941,0.09172844886779785,0.03234034776687622,0.12845072150230408,-0.08921561390161514,-0.283716082572937
2026-04-30T16:25:58.428000+00:00,S006,31,50,1777566358355,1777566358454,1777566358428,background,1777566358194,0.004416771233081818,0.023012876510620117,0.04585482180118561,0.3789828419685364,0.010205290280282497,-0.1531016230583191
2026-04-30T16:25:58.428000+00:00,S006,31,50,1777566358355,1777566358454,1777566358428,background,1777566358214,0.22624357044696808,-0.06323796510696411,0.11633135378360748,0.0619574636220932,-0.33869773149490356,0.14159344136714935
2026-04-30T16:25:58.428000+00:00,S006,31,50,1777566358355,1777566358454,1777566358428,background,1777566358234,-0.11532283574342728,-0.021364986896514893,0.0034953057765960693,-0.10799482464790344,-0.038525763899087906,0.05251316353678703
2026-04-30T16:25:58.428000+00:00,S006,31,50,1777566358355,1777566358454,1777566358428,background,1777566358255,-0.02005183696746826,0.04268348217010498,0.0045590996742248535,-0.26993390917778015,-0.02755616419017315,0.07335660606622696
2026-04-30T16:25:58.428000+00:00,S006,31,50,1777566358355,1777566358454,1777566358428,background,1777566358275,0.01599862426519394,0.03549361228942871,-0.007317334413528442,-0.23039531707763672,-0.07972810417413712,0.09674336761236191
2026-04-30T16:25:58.428000+00:00,S006,31,50,1777566358355,1777566358454,1777566358428,background,1777566358295,-0.017469219863414764,0.0053997039794921875,0.0018369555473327637,-0.2572689950466156,-0.04927576333284378,0.1281561404466629
2026-04-30T16:25:58.428000+00:00,S006,31,50,1777566358355,1777566358454,1777566358428,background,1777566358315,0.003421276807785034,-0.10291385650634766,0.01517602801322937,-0.2580365240573883,-0.07549980282783508,0.06940601766109467
2026-04-30T16:25:58.428000+00:00,S006,31,50,1777566358355,1777566358454,1777566358428,background,1777566358335,-0.0162479430437088,-0.1255822777748108,-0.04920993745326996,-0.3128012418746948,-0.023945564404129982,0.030236512422561646
2026-04-30T16:25:58.428000+00:00,S006,31,50,1777566358355,1777566358454,1777566358428,background,1777566358355,-0.001141563057899475,0.022359132766723633,-0.014974936842918396,-0.18611198663711548,-0.02625608630478382,0.04089256376028061
2026-04-30T16:25:58.724000+00:00,S006,32,50,1777566358556,1777566358734,1777566358724,background,1777566358375,0.006759487092494965,0.08713310956954956,-0.086894690990448,0.23341630399227142,0.006620562169700861,0.028797339648008347
2026-04-30T16:25:58.724000+00:00,S006,32,50,1777566358556,1777566358734,1777566358724,background,1777566358396,-0.0158984437584877,-0.021320700645446777,-0.009163200855255127,0.15085351467132568,0.02291393280029297,0.05203863978385925
2026-04-30T16:25:58.724000+00:00,S006,32,50,1777566358556,1777566358734,1777566358724,background,1777566358415,-0.04528488963842392,-0.10985583066940308,-0.028566822409629822,-0.10695406794548035,0.03935354948043823,0.02077387645840645
2026-04-30T16:25:58.724000+00:00,S006,32,50,1777566358556,1777566358734,1777566358724,background,1777566358436,-0.0693574845790863,-0.07591813802719116,-0.021953701972961426,-0.12165284901857376,0.04178619384765625,-0.05227258801460266
2026-04-30T16:25:58.724000+00:00,S006,32,50,1777566358556,1777566358734,1777566358724,background,1777566358457,-0.06688445806503296,-0.026619911193847656,-0.01563374698162079,0.03374606370925903,0.051312707364559174,-0.09221334010362625
2026-04-30T16:25:58.724000+00:00,S006,32,50,1777566358556,1777566358734,1777566358724,background,1777566358476,-0.06344331055879593,-0.05197036266326904,-0.02442033588886261,0.3322320878505707,0.042469143867492676,-0.18974298238754272
2026-04-30T16:25:58.724000+00:00,S006,32,50,1777566358556,1777566358734,1777566358724,background,1777566358496,-0.0955381691455841,-0.09420967102050781,-0.027869105339050293,0.44367873668670654,0.09182973206043243,-0.2760066092014313
2026-04-30T16:25:58.724000+00:00,S006,32,50,1777566358556,1777566358734,1777566358724,background,1777566358516,-0.07353286445140839,-0.049156904220581055,-0.0006170123815536499,-0.052890028804540634,0.29710710048675537,-0.06315074861049652
2026-04-30T16:25:58.724000+00:00,S006,32,50,1777566358556,1777566358734,1777566358724,background,1777566358536,0.08790025115013123,0.06575864553451538,0.02702006697654724,-0.7177119851112366,0.23255036771297455,0.31552523374557495
2026-04-30T16:25:58.724000+00:00,S006,32,50,1777566358556,1777566358734,1777566358724,background,1777566358556,-0.026853233575820923,0.2033509612083435,0.03739182651042938,0.022427095100283623,-0.29922565817832947,-0.3466741740703583
2026-04-30T16:25:58.871000+00:00,S006,33,50,1777566358762,1777566358924,1777566358871,background,1777566358576,-0.19779318571090698,0.23588138818740845,0.0676954984664917,0.812386155128479,0.39336180686950684,-0.13047513365745544
2026-04-30T16:25:58.871000+00:00,S006,33,50,1777566358762,1777566358924,1777566358871,background,1777566358596,0.12328816205263138,-0.062282562255859375,0.0461726188659668,0.6500512957572937,-0.007901579141616821,-0.07277088612318039
2026-04-30T16:25:58.871000+00:00,S006,33,50,1777566358762,1777566358924,1777566358871,background,1777566358616,-0.01245829463005066,-0.1197054386138916,-0.01601402461528778,0.33457672595977783,0.13622450828552246,0.006922242231667042
2026-04-30T16:25:58.871000+00:00,S006,33,50,1777566358762,1777566358924,1777566358871,background,1777566358637,-0.009050749242305756,-0.03870433568954468,0.04516197741031647,0.10729698091745377,0.19470547139644623,0.08592486381530762
2026-04-30T16:25:58.871000+00:00,S006,33,50,1777566358762,1777566358924,1777566358871,background,1777566358657,0.014327682554721832,0.05648064613342285,0.04206128418445587,-0.00014878809452056885,0.11207454651594162,-0.011013401672244072
2026-04-30T16:25:58.871000+00:00,S006,33,50,1777566358762,1777566358924,1777566358871,background,1777566358677,-0.07256744056940079,0.023349463939666748,-0.04086914658546448,-0.008346263319253922,0.1902623325586319,-0.1853867918252945
2026-04-30T16:25:58.871000+00:00,S006,33,50,1777566358762,1777566358924,1777566358871,background,1777566358697,0.02194073051214218,-0.029329001903533936,-0.02326810359954834,-0.0331253781914711,0.1837058663368225,-0.13507398962974548
2026-04-30T16:25:58.871000+00:00,S006,33,50,1777566358762,1777566358924,1777566358871,background,1777566358717,0.023898743093013763,-0.032100558280944824,-0.004609584808349609,0.000708485022187233,0.2359907478094101,-0.01701350323855877
2026-04-30T16:25:58.871000+00:00,S006,33,50,1777566358762,1777566358924,1777566358871,background,1777566358737,0.0030383318662643433,0.002238154411315918,0.0028213560581207275,-0.03377359360456467,0.2437228560447693,-0.052812300622463226
2026-04-30T16:25:58.871000+00:00,S006,33,50,1777566358762,1777566358924,1777566358871,background,1777566358761,-0.020909897983074188,0.054085373878479004,-0.017744332551956177,0.18454302847385406,0.235743910074234,-0.1327623724937439
2026-04-30T16:25:59.056000+00:00,S006,34,50,1777566358959,1777566359043,1777566359056,background,1777566358780,-0.013859570026397705,0.011203944683074951,-0.04372197389602661,0.4162377715110779,0.20304836332798004,-0.11688768863677979
2026-04-30T16:25:59.056000+00:00,S006,34,50,1777566358959,1777566359043,1777566359056,background,1777566358797,-0.025332726538181305,0.020476102828979492,-0.06139622628688812,0.5459198951721191,0.2574831247329712,-0.09075254946947098
2026-04-30T16:25:59.056000+00:00,S006,34,50,1777566358959,1777566359043,1777566359056,background,1777566358818,-0.009599193930625916,0.011060357093811035,-0.03206132352352142,0.6044577360153198,0.2657374143600464,-0.04672979936003685
2026-04-30T16:25:59.056000+00:00,S006,34,50,1777566358959,1777566359043,1777566359056,background,1777566358837,-0.008660823106765747,0.0405048131942749,0.03586813807487488,0.6714404821395874,0.24985486268997192,-0.03352973610162735
2026-04-30T16:25:59.056000+00:00,S006,34,50,1777566358959,1777566359043,1777566359056,background,1777566358857,-0.01827232539653778,0.028357207775115967,0.08424398303031921,0.8085405230522156,0.20628133416175842,-0.06423693895339966
2026-04-30T16:25:59.056000+00:00,S006,34,50,1777566358959,1777566359043,1777566359056,background,1777566358877,-0.008900023996829987,-0.03236734867095947,0.05570933222770691,0.7655179500579834,0.12963970005512238,-0.09810329228639603
2026-04-30T16:25:59.056000+00:00,S006,34,50,1777566358959,1777566359043,1777566359056,background,1777566358898,0.011024855077266693,0.08354520797729492,0.056144922971725464,0.5694456696510315,0.10169761627912521,-0.014348318800330162
2026-04-30T16:25:59.056000+00:00,S006,34,50,1777566358959,1777566359043,1777566359056,background,1777566358918,0.005290120840072632,0.08099842071533203,0.006453573703765869,0.7258902192115784,0.09210658818483353,0.03675827383995056
2026-04-30T16:25:59.056000+00:00,S006,34,50,1777566358959,1777566359043,1777566359056,background,1777566358938,0.03519502282142639,0.035238683223724365,0.06081381440162659,0.7891397476196289,0.06757974624633789,0.011678062379360199
2026-04-30T16:25:59.056000+00:00,S006,34,50,1777566358959,1777566359043,1777566359056,background,1777566358958,0.09653971344232559,-0.017197728157043457,0.07325461506843567,0.6175804734230042,-0.04420891031622887,0.02910775877535343
2026-04-30T16:25:59.245000+00:00,S006,35,50,1777566359159,1777566359305,1777566359245,background,1777566358978,0.06427326798439026,0.003628253936767578,0.1025746762752533,0.3590887486934662,-0.11210563033819199,0.05417438969016075
2026-04-30T16:25:59.245000+00:00,S006,35,50,1777566359159,1777566359305,1777566359245,background,1777566358998,0.0018963292241096497,-0.02799004316329956,0.032819390296936035,0.19958722591400146,-0.09918645024299622,0.003000950673595071
2026-04-30T16:25:59.245000+00:00,S006,35,50,1777566359159,1777566359305,1777566359245,background,1777566359018,-0.0015201196074485779,0.04884988069534302,0.0737665593624115,0.20101095736026764,-0.13943012058734894,0.1181345134973526
2026-04-30T16:25:59.245000+00:00,S006,35,50,1777566359159,1777566359305,1777566359245,background,1777566359038,-0.010113134980201721,0.04452770948410034,-0.02517986297607422,0.602583646774292,-0.15079812705516815,0.07968518137931824
2026-04-30T16:25:59.245000+00:00,S006,35,50,1777566359159,1777566359305,1777566359245,background,1777566359058,-0.028115279972553253,-0.14246994256973267,-0.07422098517417908,0.8475183248519897,-0.10622484236955643,-0.021455124020576477
2026-04-30T16:25:59.245000+00:00,S006,35,50,1777566359159,1777566359305,1777566359245,background,1777566359078,-0.02281583845615387,-0.14927542209625244,-0.001379460096359253,0.3921359181404114,-0.052341900765895844,-0.008506834506988525
2026-04-30T16:25:59.245000+00:00,S006,35,50,1777566359159,1777566359305,1777566359245,background,1777566359098,-0.019303977489471436,-0.017682015895843506,-0.04840609431266785,0.2703130841255188,0.001148640876635909,0.008471189998090267
2026-04-30T16:25:59.245000+00:00,S006,35,50,1777566359159,1777566359305,1777566359245,background,1777566359119,-0.029212094843387604,0.07985883951187134,-0.06190991401672363,0.5620328187942505,0.13137608766555786,-0.040752653032541275
2026-04-30T16:25:59.245000+00:00,S006,35,50,1777566359159,1777566359305,1777566359245,background,1777566359139,0.004016302525997162,0.05128222703933716,-0.05729749798774719,1.057909607887268,0.14568597078323364,-0.07925274968147278
2026-04-30T16:25:59.245000+00:00,S006,35,50,1777566359159,1777566359305,1777566359245,background,1777566359159,-0.003410615026950836,-0.029861867427825928,-0.007834255695343018,1.2227745056152344,0.1717904955148697,-0.07671422511339188
2026-04-30T16:25:59.417000+00:00,S006,36,50,1777566359360,1777566359478,1777566359417,background,1777566359179,-0.019834987819194794,-0.08707946538925171,0.09167703986167908,0.6299271583557129,0.20173615217208862,-0.10580366104841232
2026-04-30T16:25:59.417000+00:00,S006,36,50,1777566359360,1777566359478,1777566359417,background,1777566359199,-0.012321040034294128,-0.1190042495727539,0.10642072558403015,-0.2877883017063141,0.17815321683883667,-0.09905947744846344
2026-04-30T16:25:59.417000+00:00,S006,36,50,1777566359360,1777566359478,1777566359417,background,1777566359219,-0.011624902486801147,-0.009209156036376953,0.1365777850151062,-0.8198575377464294,0.16205359995365143,-0.08439259976148605
2026-04-30T16:25:59.417000+00:00,S006,36,50,1777566359360,1777566359478,1777566359417,background,1777566359239,0.01233624666929245,0.16622602939605713,0.04461437463760376,-0.2112370729446411,0.08768162876367569,-0.032668307423591614
2026-04-30T16:25:59.417000+00:00,S006,36,50,1777566359360,1777566359478,1777566359417,background,1777566359259,0.011383675038814545,0.1409519910812378,0.04834821820259094,0.38273710012435913,-0.009306930005550385,0.03910835459828377
2026-04-30T16:25:59.417000+00:00,S006,36,50,1777566359360,1777566359478,1777566359417,background,1777566359279,0.010514073073863983,-0.015101730823516846,0.10563278198242188,0.4041113555431366,-0.1160544902086258,0.03718097135424614
2026-04-30T16:25:59.417000+00:00,S006,36,50,1777566359360,1777566359478,1777566359417,background,1777566359299,-0.0017659515142440796,0.005239367485046387,0.07496681809425354,0.3376827836036682,-0.14126579463481903,0.04749038815498352
2026-04-30T16:25:59.417000+00:00,S006,36,50,1777566359360,1777566359478,1777566359417,background,1777566359323,-0.020120836794376373,-0.019484102725982666,0.05160453915596008,0.30872464179992676,-0.1216704472899437,0.03396674990653992
2026-04-30T16:25:59.417000+00:00,S006,36,50,1777566359360,1777566359478,1777566359417,background,1777566359340,-0.025579728186130524,-0.024142742156982422,0.03263548016548157,0.12805765867233276,-0.12019886076450348,-0.009775565005838871
2026-04-30T16:25:59.417000+00:00,S006,36,50,1777566359360,1777566359478,1777566359417,background,1777566359360,-0.030115477740764618,-0.0558587908744812,-0.0808856189250946,0.14241687953472137,-0.02851402759552002,-0.005582630634307861
2026-04-30T16:25:59.626000+00:00,S006,37,50,1777566359561,1777566359666,1777566359626,background,1777566359380,-0.030064202845096588,-0.0538560152053833,-0.09739387035369873,0.3054899573326111,0.022274736315011978,-0.04709497466683388
2026-04-30T16:25:59.626000+00:00,S006,37,50,1777566359561,1777566359666,1777566359626,background,1777566359400,-0.0203990638256073,-0.016303062438964844,-0.028691738843917847,0.4744187891483307,-0.012993695214390755,-0.023176591843366623
2026-04-30T16:25:59.626000+00:00,S006,37,50,1777566359561,1777566359666,1777566359626,background,1777566359420,0.014555275440216064,0.0675736665725708,0.03808581829071045,0.4117969572544098,-0.05498870462179184,0.0313895009458065
2026-04-30T16:25:59.626000+00:00,S006,37,50,1777566359561,1777566359666,1777566359626,background,1777566359440,0.022703811526298523,0.07717633247375488,0.0945591926574707,0.20482619106769562,-0.1144271045923233,0.08699135482311249
2026-04-30T16:25:59.626000+00:00,S006,37,50,1777566359561,1777566359666,1777566359626,background,1777566359460,0.002195306122303009,-0.049795687198638916,-0.01101386547088623,0.17549601197242737,-0.09603946655988693,0.0715530589222908
2026-04-30T16:25:59.626000+00:00,S006,37,50,1777566359561,1777566359666,1777566359626,background,1777566359481,-0.00490221381187439,-0.0027593374252319336,0.007892757654190063,0.2988395094871521,-0.1550789326429367,0.07010520994663239
2026-04-30T16:25:59.626000+00:00,S006,37,50,1777566359561,1777566359666,1777566359626,background,1777566359501,-0.030688181519508362,0.09505611658096313,-0.03954756259918213,0.5172938108444214,-0.12403282523155212,0.038875434547662735
2026-04-30T16:25:59.626000+00:00,S006,37,50,1777566359561,1777566359666,1777566359626,background,1777566359521,-0.0015706196427345276,0.0090254545211792,0.05308938026428223,0.27611929178237915,-0.12233232706785202,0.04238548129796982
2026-04-30T16:25:59.626000+00:00,S006,37,50,1777566359561,1777566359666,1777566359626,background,1777566359541,-0.007271505892276764,-0.03734868764877319,0.020743250846862793,0.05826099216938019,-0.10098103433847427,0.04439419507980347
2026-04-30T16:25:59.626000+00:00,S006,37,50,1777566359561,1777566359666,1777566359626,background,1777566359561,-0.03296110779047012,0.004680216312408447,-0.049388110637664795,0.059374190866947174,-0.05700026452541351,0.03693239390850067
2026-04-30T16:25:59.862000+00:00,S006,38,50,1777566359762,1777566359898,1777566359862,background,1777566359581,-0.03979457914829254,-0.020149171352386475,-0.023000061511993408,0.10584022104740143,-0.046142857521772385,0.008805043995380402
2026-04-30T16:25:59.862000+00:00,S006,38,50,1777566359762,1777566359898,1777566359862,background,1777566359601,-0.0075318291783332825,0.010160326957702637,-0.011727571487426758,0.2045937031507492,-0.05510606989264488,0.03538200631737709
2026-04-30T16:25:59.862000+00:00,S006,38,50,1777566359762,1777566359898,1777566359862,background,1777566359621,0.009464941918849945,0.021001815795898438,0.00010544061660766602,0.3069264590740204,-0.057891927659511566,0.044713880866765976
2026-04-30T16:25:59.862000+00:00,S006,38,50,1777566359762,1777566359898,1777566359862,background,1777566359641,0.014788053929805756,0.03167712688446045,0.03987854719161987,0.2950170636177063,-0.06127011030912399,0.06488461047410965
2026-04-30T16:25:59.862000+00:00,S006,38,50,1777566359762,1777566359898,1777566359862,background,1777566359662,-0.0010525807738304138,-0.010522961616516113,-0.001667320728302002,0.24282817542552948,-0.06099260598421097,0.061476241797208786
2026-04-30T16:25:59.862000+00:00,S006,38,50,1777566359762,1777566359898,1777566359862,background,1777566359687,-0.022902682423591614,-0.001662611961364746,0.024441301822662354,0.161050483584404,-0.036317355930805206,0.06545542925596237
2026-04-30T16:25:59.862000+00:00,S006,38,50,1777566359762,1777566359898,1777566359862,background,1777566359701,-0.039693236351013184,-0.02738010883331299,-0.02929478883743286,0.054798614233732224,-0.01736242137849331,0.035382695496082306
2026-04-30T16:25:59.862000+00:00,S006,38,50,1777566359762,1777566359898,1777566359862,background,1777566359722,-0.026704855263233185,-0.03132748603820801,-0.016242265701293945,-0.07916957139968872,0.02955608442425728,0.0015815922524780035
2026-04-30T16:25:59.862000+00:00,S006,38,50,1777566359762,1777566359898,1777566359862,background,1777566359742,-0.00940704345703125,-0.014409005641937256,-0.0368046760559082,-0.11151951551437378,0.04271560162305832,0.01092529296875
2026-04-30T16:25:59.862000+00:00,S006,38,50,1777566359762,1777566359898,1777566359862,background,1777566359762,0.003220468759536743,-0.004386484622955322,-0.006431102752685547,-0.05154699832201004,0.025828002020716667,-0.002078070305287838
2026-04-30T16:26:00.105000+00:00,S006,39,50,1777566359963,1777566360075,1777566360105,background,1777566359782,0.021013587713241577,0.021297454833984375,0.01891303062438965,-0.009850417263805866,0.0325319804251194,0.008343411609530449
2026-04-30T16:26:00.105000+00:00,S006,39,50,1777566359963,1777566360075,1777566360105,background,1777566359802,0.01835821568965912,0.07275760173797607,0.06417417526245117,0.295663446187973,-0.013669339008629322,0.024077899754047394
2026-04-30T16:26:00.105000+00:00,S006,39,50,1777566359963,1777566360075,1777566360105,background,1777566359822,0.04236343502998352,0.11171537637710571,0.06313002109527588,0.6121084690093994,-0.12128235399723053,0.06526368856430054
2026-04-30T16:26:00.105000+00:00,S006,39,50,1777566359963,1777566360075,1777566360105,background,1777566359842,0.011289790272712708,0.05131208896636963,0.047923386096954346,0.7608305811882019,-0.18126130104064941,0.10383861511945724
2026-04-30T16:26:00.105000+00:00,S006,39,50,1777566359963,1777566360075,1777566360105,background,1777566359862,-0.00272301584482193,0.026581764221191406,0.009586572647094727,0.8760173320770264,-0.2098022848367691,0.07633114606142044
2026-04-30T16:26:00.105000+00:00,S006,39,50,1777566359963,1777566360075,1777566360105,background,1777566359882,-0.06339657306671143,0.011491537094116211,-0.03779178857803345,0.9852926731109619,-0.14861518144607544,-0.04508562013506889
2026-04-30T16:26:00.105000+00:00,S006,39,50,1777566359963,1777566360075,1777566360105,background,1777566359903,-0.012900471687316895,-0.101284921169281,-0.0509566068649292,0.5223767161369324,-0.04819764196872711,0.011862672865390778
2026-04-30T16:26:00.105000+00:00,S006,39,50,1777566359963,1777566360075,1777566360105,background,1777566359922,-0.008957259356975555,-0.15031951665878296,-0.025776386260986328,-0.04107731208205223,-0.004340704530477524,-0.02019374445080757
2026-04-30T16:26:00.105000+00:00,S006,39,50,1777566359963,1777566360075,1777566360105,background,1777566359942,0.012148641049861908,-0.040235698223114014,-0.030855655670166016,-0.2844598889350891,0.022474056109786034,0.02267414703965187
2026-04-30T16:26:00.105000+00:00,S006,39,50,1777566359963,1777566360075,1777566360105,background,1777566359963,0.03245970606803894,-0.03315842151641846,0.009742438793182373,-0.3000747859477997,0.0438624732196331,0.06609656661748886
2026-04-30T16:26:00.233000+00:00,S006,40,50,1777566360164,1777566360263,1777566360233,background,1777566359983,-0.007944546639919281,0.05604839324951172,0.009787023067474365,-0.06598559021949768,-0.048915665596723557,0.012562870047986507
2026-04-30T16:26:00.233000+00:00,S006,40,50,1777566360164,1777566360263,1777566360233,background,1777566360003,-0.039461515843868256,0.011802494525909424,0.015850543975830078,-0.03540078550577164,-0.0015273033641278744,-0.016642151400446892
2026-04-30T16:26:00.233000+00:00,S006,40,50,1777566360164,1777566360263,1777566360233,background,1777566360023,-0.012136653065681458,0.0034819841384887695,0.011871099472045898,-0.022497503086924553,-0.004335074219852686,-0.013655470684170723
2026-04-30T16:26:00.233000+00:00,S006,40,50,1777566360164,1777566360263,1777566360233,background,1777566360043,-0.010713741183280945,-0.0050313472747802734,-0.0017699599266052246,-0.023634405806660652,-0.0037991697899997234,-0.0018156957812607288
2026-04-30T16:26:00.233000+00:00,S006,40,50,1777566360164,1777566360263,1777566360233,background,1777566360063,0.00163993239402771,-0.003265976905822754,0.001492321491241455,-0.02072916179895401,-0.01736820489168167,0.01075341273099184
2026-04-30T16:26:00.233000+00:00,S006,40,50,1777566360164,1777566360263,1777566360233,background,1777566360083,-0.0031467676162719727,-0.009519994258880615,-0.0004551410675048828,-0.047784216701984406,-0.018190473318099976,-0.0027588277589529753
2026-04-30T16:26:00.233000+00:00,S006,40,50,1777566360164,1777566360263,1777566360233,background,1777566360103,-0.0006511285901069641,-0.003978073596954346,-0.008327126502990723,-0.09368140250444412,-0.018710171803832054,0.0009552700794301927
2026-04-30T16:26:00.233000+00:00,S006,40,50,1777566360164,1777566360263,1777566360233,background,1777566360123,-0.005024410784244537,-0.013962507247924805,-0.001832127571105957,-0.1407969892024994,-0.0037701413966715336,0.017365243285894394
2026-04-30T16:26:00.233000+00:00,S006,40,50,1777566360164,1777566360263,1777566360233,background,1777566360143,0.0005172044038772583,0.0005249977111816406,-0.005611896514892578,-0.18711388111114502,-0.0017406984698027372,0.025915054604411125
2026-04-30T16:26:00.233000+00:00,S006,40,50,1777566360164,1777566360263,1777566360233,background,1777566360164,-0.009619094431400299,0.0009091496467590332,0.007228195667266846,-0.14305880665779114,0.01777620241045952,0.005901239346712828
2026-04-30T16:26:00.433000+00:00,S006,41,50,1777566360365,1777566360495,1777566360433,background,1777566360184,-0.003616221249103546,0.02168869972229004,0.009233474731445312,-0.03377678990364075,0.013082228600978851,0.013057898730039597
2026-04-30T16:26:00.433000+00:00,S006,41,50,1777566360365,1777566360495,1777566360433,background,1777566360204,0.0004851296544075012,0.02666163444519043,0.014929115772247314,0.08907696604728699,0.013457429595291615,0.010205654427409172
2026-04-30T16:26:00.433000+00:00,S006,41,50,1777566360365,1777566360495,1777566360433,background,1777566360224,0.0016635730862617493,-0.0180092453956604,0.002361118793487549,0.008174123242497444,-0.008270465768873692,-0.0062547591514885426
2026-04-30T16:26:00.433000+00:00,S006,41,50,1777566360365,1777566360495,1777566360433,background,1777566360244,-0.006323926150798798,-0.017189443111419678,0.004220902919769287,-0.022869279608130455,-0.00375226023606956,-0.00200446043163538
2026-04-30T16:26:00.433000+00:00,S006,41,50,1777566360365,1777566360495,1777566360433,background,1777566360264,-0.00221378356218338,0.024086296558380127,-0.0069037675857543945,-0.030195370316505432,0.0054669189266860485,-0.01179573219269514
2026-04-30T16:26:00.433000+00:00,S006,41,50,1777566360365,1777566360495,1777566360433,background,1777566360284,0.002249680459499359,3.8743019104003906e-05,0.011216580867767334,-0.02036431059241295,-0.005009082145988941,-0.013899949379265308
2026-04-30T16:26:00.433000+00:00,S006,41,50,1777566360365,1777566360495,1777566360433,background,1777566360304,-0.0001441165804862976,0.006122112274169922,0.0021134614944458008,0.003973519429564476,-0.011287027969956398,-0.014510292559862137
2026-04-30T16:26:00.433000+00:00,S006,41,50,1777566360365,1777566360495,1777566360433,background,1777566360324,-0.007417134940624237,-0.0039141178131103516,0.005407810211181641,-0.007656505331397057,-0.0037375364918261766,-0.003470477182418108
2026-04-30T16:26:00.433000+00:00,S006,41,50,1777566360365,1777566360495,1777566360433,background,1777566360344,-0.014857597649097443,-0.03858894109725952,-0.0018743276596069336,-0.1689402014017105,0.03037143126130104,0.007256468757987022
2026-04-30T16:26:00.433000+00:00,S006,41,50,1777566360365,1777566360495,1777566360433,background,1777566360365,-0.009142287075519562,-0.04614222049713135,-0.014648199081420898,-0.4635377526283264,0.03935689851641655,0.001949960715137422
2026-04-30T16:26:00.630000+00:00,S006,42,50,1777566360565,1777566360689,1777566360630,background,1777566360385,-0.015171870589256287,-0.04220312833786011,0.0004907846450805664,-0.6590214967727661,0.07057614624500275,0.011105535551905632
2026-04-30T16:26:00.630000+00:00,S006,42,50,1777566360565,1777566360689,1777566360630,background,1777566360405,-0.027599893510341644,-0.014926016330718994,0.00464630126953125,-0.6653156280517578,0.14484749734401703,0.017840297892689705
2026-04-30T16:26:00.630000+00:00,S006,42,50,1777566360565,1777566360689,1777566360630,background,1777566360425,0.002385437488555908,0.03170424699783325,-0.02817845344543457,-0.5931271910667419,0.16413311660289764,0.08818242698907852
2026-04-30T16:26:00.630000+00:00,S006,42,50,1777566360565,1777566360689,1777566360630,background,1777566360445,-0.02037864923477173,0.046082913875579834,-0.016714513301849365,-0.2190409153699875,0.08326733112335205,-0.036462992429733276
2026-04-30T16:26:00.630000+00:00,S006,42,50,1777566360565,1777566360689,1777566360630,background,1777566360465,0.04999665170907974,0.04801970720291138,0.015336394309997559,0.06313670426607132,0.029377462342381477,-0.02602665312588215
2026-04-30T16:26:00.630000+00:00,S006,42,50,1777566360565,1777566360689,1777566360630,background,1777566360485,0.04716864973306656,0.027252793312072754,0.032985568046569824,0.14431704580783844,-0.023754997178912163,-0.0008206854108721018
2026-04-30T16:26:00.630000+00:00,S006,42,50,1777566360565,1777566360689,1777566360630,background,1777566360505,-0.01713213324546814,-0.006725907325744629,0.0009577274322509766,0.08378659188747406,0.009312598966062069,-0.01248176209628582
2026-04-30T16:26:00.630000+00:00,S006,42,50,1777566360565,1777566360689,1777566360630,background,1777566360525,-0.02348000556230545,-0.015408515930175781,0.004241883754730225,-0.02062210440635681,0.03477051481604576,-0.013657760806381702
2026-04-30T16:26:00.630000+00:00,S006,42,50,1777566360565,1777566360689,1777566360630,background,1777566360545,-0.015520788729190826,-0.009469807147979736,-0.014760255813598633,0.004414273425936699,0.07595645636320114,0.0006448521162383258
2026-04-30T16:26:00.630000+00:00,S006,42,50,1777566360565,1777566360689,1777566360630,background,1777566360565,-0.0007458031177520752,0.04660320281982422,0.007692217826843262,0.22587208449840546,0.049459028989076614,-0.014183149673044682
2026-04-30T16:26:00.823000+00:00,S006,43,50,1777566360767,1777566360878,1777566360823,background,1777566360585,0.02188505232334137,0.040099143981933594,0.025415778160095215,0.35960566997528076,-0.0037748590111732483,-0.005176018923521042
2026-04-30T16:26:00.823000+00:00,S006,43,50,1777566360767,1777566360878,1777566360823,background,1777566360605,0.014047034084796906,0.05912715196609497,0.032997310161590576,0.5965167284011841,-0.06754638254642487,-0.021416615694761276
2026-04-30T16:26:00.823000+00:00,S006,43,50,1777566360767,1777566360878,1777566360823,background,1777566360626,0.018167130649089813,0.05804640054702759,0.03873652219772339,0.8356646299362183,-0.13936574757099152,-0.025875918567180634
2026-04-30T16:26:00.823000+00:00,S006,43,50,1777566360767,1777566360878,1777566360823,background,1777566360646,-0.021537885069847107,-0.0018943548202514648,-0.002749025821685791,0.7067809104919434,-0.08131206780672073,-0.04073593020439148
2026-04-30T16:26:00.823000+00:00,S006,43,50,1777566360767,1777566360878,1777566360823,background,1777566360666,-0.01515691727399826,-0.07583874464035034,-0.0012385845184326172,0.45752209424972534,-0.03565346822142601,-0.002126806415617466
2026-04-30T16:26:00.823000+00:00,S006,43,50,1777566360767,1777566360878,1777566360823,background,1777566360686,-0.007235132157802582,0.008677780628204346,0.017072558403015137,0.4537707567214966,-0.04504716023802757,-0.012878254055976868
2026-04-30T16:26:00.823000+00:00,S006,43,50,1777566360767,1777566360878,1777566360823,background,1777566360706,-0.007329918444156647,0.03775215148925781,0.03852206468582153,0.5589362978935242,-0.05934194475412369,-0.05817526951432228
2026-04-30T16:26:00.823000+00:00,S006,43,50,1777566360767,1777566360878,1777566360823,background,1777566360726,-0.009128779172897339,-0.006289005279541016,0.012241125106811523,0.5106614828109741,-0.04257601127028465,-0.09430573880672455
2026-04-30T16:26:00.823000+00:00,S006,43,50,1777566360767,1777566360878,1777566360823,background,1777566360746,0.004692584276199341,-0.025908589363098145,-0.016364991664886475,0.3510987162590027,-0.043119147419929504,-0.0836508497595787
2026-04-30T16:26:00.823000+00:00,S006,43,50,1777566360767,1777566360878,1777566360823,background,1777566360766,-0.006555087864398956,-0.025554120540618896,-0.019990086555480957,0.18665705621242523,-0.01850050315260887,-0.07202381640672684
2026-04-30T16:26:01.031000+00:00,S006,44,50,1777566360967,1777566361070,1777566361031,background,1777566360786,0.0090247243642807,-0.024275124073028564,-0.00495457649230957,0.07800034433603287,-0.03519882634282112,-0.04088379070162773
2026-04-30T16:26:01.031000+00:00,S006,44,50,1777566360967,1777566361070,1777566361031,background,1777566360806,-0.0021146759390830994,-0.018661141395568848,0.00011676549911499023,0.030917784199118614,-0.047453779727220535,-0.019209226593375206
2026-04-30T16:26:01.031000+00:00,S006,44,50,1777566360967,1777566361070,1777566361031,background,1777566360827,0.012754939496517181,0.012010931968688965,0.031842052936553955,0.027208535000681877,-0.07030933350324631,0.01117461733520031
2026-04-30T16:26:01.031000+00:00,S006,44,50,1777566360967,1777566361070,1777566361031,background,1777566360847,-0.0007632672786712646,0.020917534828186035,0.0044699907302856445,0.13937528431415558,-0.06974219530820847,0.01567211002111435
2026-04-30T16:26:01.031000+00:00,S006,44,50,1777566360967,1777566361070,1777566361031,background,1777566360867,-0.007224854081869125,0.0038385391235351562,-0.006412982940673828,0.15879212319850922,-0.048768050968647,0.0024379051756113768
2026-04-30T16:26:01.031000+00:00,S006,44,50,1777566360967,1777566361070,1777566361031,background,1777566360887,-0.010500796139240265,-0.015753209590911865,-0.0018177032470703125,0.07789035141468048,-0.023147378116846085,-0.013013009913265705
2026-04-30T16:26:01.031000+00:00,S006,44,50,1777566360967,1777566361070,1777566361031,background,1777566360907,-0.003067251294851303,-0.017875850200653076,0.0017611384391784668,0.054323241114616394,-0.012427735142409801,-0.0018236851319670677
2026-04-30T16:26:01.031000+00:00,S006,44,50,1777566360967,1777566361070,1777566361031,background,1777566360927,-0.012427985668182373,-0.004478931427001953,-0.0028421878814697266,0.036650240421295166,-0.0029261093586683273,0.022579126060009003
2026-04-30T16:26:01.031000+00:00,S006,44,50,1777566360967,1777566361070,1777566361031,background,1777566360947,-0.005370683968067169,0.00425565242767334,0.0022727251052856445,0.07713507860898972,0.0014061685651540756,0.014055092819035053
2026-04-30T16:26:01.031000+00:00,S006,44,50,1777566360967,1777566361070,1777566361031,background,1777566360967,0.0028377212584018707,0.01620638370513916,0.002924323081970215,0.12062769383192062,-0.009309136308729649,0.005409779958426952
2026-04-30T16:26:01.225000+00:00,S006,45,50,1777566361168,1777566361280,1777566361225,background,1777566360990,-0.007114022970199585,-0.003031611442565918,0.0021815896034240723,0.1026923730969429,0.0037284072022885084,-0.012338964268565178
2026-04-30T16:26:01.225000+00:00,S006,45,50,1777566361168,1777566361280,1777566361225,background,1777566361007,-0.007654428482055664,-0.013825953006744385,-0.004302561283111572,0.018056048080325127,0.021967826411128044,-0.021473607048392296
2026-04-30T16:26:01.225000+00:00,S006,45,50,1777566361168,1777566361280,1777566361225,background,1777566361028,-0.006488978862762451,-0.01863807439804077,0.0026180148124694824,-0.037067122757434845,0.02721516601741314,-0.02631549909710884
2026-04-30T16:26:01.225000+00:00,S006,45,50,1777566361168,1777566361280,1777566361225,background,1777566361048,0.004150226712226868,0.018545687198638916,0.004732072353363037,0.08609821647405624,-0.004203627817332745,0.008184794336557388
2026-04-30T16:26:01.225000+00:00,S006,45,50,1777566361168,1777566361280,1777566361225,background,1777566361070,-0.0025576986372470856,-0.006019115447998047,-0.0033943653106689453,0.08761195838451385,-0.003938947804272175,0.05904696136713028
2026-04-30T16:26:01.225000+00:00,S006,45,50,1777566361168,1777566361280,1777566361225,background,1777566361088,-0.010224774479866028,-0.13999199867248535,-0.017552614212036133,-0.6424339413642883,0.029592113569378853,0.06933421641588211
2026-04-30T16:26:01.225000+00:00,S006,45,50,1777566361168,1777566361280,1777566361225,background,1777566361108,-0.023303024470806122,-0.14898169040679932,-0.08380353450775146,-1.6870123147964478,0.1546487659215927,0.13041749596595764
2026-04-30T16:26:01.225000+00:00,S006,45,50,1777566361168,1777566361280,1777566361225,background,1777566361128,-0.031643591821193695,-0.15575730800628662,-0.10507500171661377,-3.0839476585388184,0.2783990502357483,0.39816248416900635
2026-04-30T16:26:01.225000+00:00,S006,45,50,1777566361168,1777566361280,1777566361225,background,1777566361148,-0.10533621907234192,-0.25273680686950684,-0.06187248229980469,-3.286388874053955,0.24623064696788788,0.081108957529068
2026-04-30T16:26:01.225000+00:00,S006,45,50,1777566361168,1777566361280,1777566361225,background,1777566361168,-0.13462460041046143,0.2556173801422119,-0.04936259984970093,-1.517777919769287,0.4200012981891632,0.002335852710530162
2026-04-30T16:26:01.475000+00:00,S006,46,50,1777566361369,1777566361471,1777566361475,background,1777566361188,0.04152225703001022,0.25271397829055786,-0.003508627414703369,-0.017518721520900726,0.24836406111717224,-0.06889496743679047
2026-04-30T16:26:01.475000+00:00,S006,46,50,1777566361369,1777566361471,1777566361475,background,1777566361209,0.01788325607776642,0.046171367168426514,0.038715094327926636,0.36428749561309814,0.24049468338489532,0.047433555126190186
2026-04-30T16:26:01.475000+00:00,S006,46,50,1777566361369,1777566361471,1777566361475,background,1777566361228,0.01730971783399582,0.05729728937149048,0.079498291015625,0.44092074036598206,0.28024134039878845,0.0688043013215065
2026-04-30T16:26:01.475000+00:00,S006,46,50,1777566361369,1777566361471,1777566361475,background,1777566361249,0.03996896743774414,0.03175783157348633,0.021852612495422363,0.5021575093269348,0.2893429100513458,0.11496439576148987
2026-04-30T16:26:01.475000+00:00,S006,46,50,1777566361369,1777566361471,1777566361475,background,1777566361269,-0.026850059628486633,0.05335259437561035,-0.07951927185058594,0.7312178611755371,0.3648653030395508,0.11073407530784607
2026-04-30T16:26:01.475000+00:00,S006,46,50,1777566361369,1777566361471,1777566361475,background,1777566361289,-0.03520972281694412,-0.03482848405838013,0.011732101440429688,0.5017345547676086,0.38907793164253235,0.06921932846307755
2026-04-30T16:26:01.475000+00:00,S006,46,50,1777566361369,1777566361471,1777566361475,background,1777566361309,-0.007987409830093384,-0.04717886447906494,-0.014138221740722656,-0.026961492374539375,0.4128558337688446,0.05366481840610504
2026-04-30T16:26:01.475000+00:00,S006,46,50,1777566361369,1777566361471,1777566361475,background,1777566361329,-0.008030369877815247,-0.03402554988861084,0.007500827312469482,-0.4016064703464508,0.4111376404762268,0.036272089928388596
2026-04-30T16:26:01.475000+00:00,S006,46,50,1777566361369,1777566361471,1777566361475,background,1777566361349,0.00015290826559066772,-0.08503496646881104,0.05203431844711304,-0.557475209236145,0.33059459924697876,-0.021627165377140045
2026-04-30T16:26:01.475000+00:00,S006,46,50,1777566361369,1777566361471,1777566361475,background,1777566361369,-0.08351555466651917,0.038503170013427734,-0.07617741823196411,0.010125953704118729,0.3343874216079712,-0.13600678741931915
2026-04-30T16:26:01.606000+00:00,S006,47,50,1777566361570,1777566361667,1777566361606,background,1777566361389,0.07826598733663559,-0.013878226280212402,0.26557672023773193,-0.34244540333747864,0.14550676941871643,-0.12063619494438171
2026-04-30T16:26:01.606000+00:00,S006,47,50,1777566361570,1777566361667,1777566361606,background,1777566361409,0.06787785142660141,0.0008790493011474609,0.0634615421295166,-0.28257596492767334,0.03697706013917923,-0.08414870500564575
2026-04-30T16:26:01.606000+00:00,S006,47,50,1777566361570,1777566361667,1777566361606,background,1777566361429,0.03520619869232178,0.026217103004455566,0.04349297285079956,0.03830033540725708,-0.08578386157751083,-0.0364692285656929
2026-04-30T16:26:01.606000+00:00,S006,47,50,1777566361570,1777566361667,1777566361606,background,1777566361449,0.0699535608291626,0.03620445728302002,0.0850970447063446,0.21774011850357056,-0.24021825194358826,-0.07384508848190308
2026-04-30T16:26:01.606000+00:00,S006,47,50,1777566361570,1777566361667,1777566361606,background,1777566361470,0.0645894706249237,0.030961990356445312,0.012297987937927246,0.44063499569892883,-0.35881614685058594,-0.05109642818570137
2026-04-30T16:26:01.606000+00:00,S006,47,50,1777566361570,1777566361667,1777566361606,background,1777566361490,0.0008049309253692627,0.02577221393585205,-0.026462435722351074,0.42049455642700195,-0.36118757724761963,-0.06511680036783218
2026-04-30T16:26:01.606000+00:00,S006,47,50,1777566361570,1777566361667,1777566361606,background,1777566361513,-0.024591758847236633,-0.013657867908477783,-0.07369881868362427,0.2358909249305725,-0.2881990671157837,-0.04102024808526039
2026-04-30T16:26:01.606000+00:00,S006,47,50,1777566361570,1777566361667,1777566361606,background,1777566361530,-0.028915509581565857,-0.04242503643035889,-0.03133749961853027,0.03696022927761078,-0.23047564923763275,-0.06421670317649841
2026-04-30T16:26:01.606000+00:00,S006,47,50,1777566361570,1777566361667,1777566361606,background,1777566361550,-0.02896159142255783,-0.0007964372634887695,0.006872117519378662,0.04450443759560585,-0.1920347809791565,-0.06823882460594177
2026-04-30T16:26:01.606000+00:00,S006,47,50,1777566361570,1777566361667,1777566361606,background,1777566361570,-0.022426724433898926,0.027898788452148438,-0.013413667678833008,0.07948185503482819,-0.1550769805908203,-0.0689934566617012
2026-04-30T16:26:01.817000+00:00,S006,48,50,1777566361771,1777566361877,1777566361817,background,1777566361590,-0.008165068924427032,0.01179426908493042,0.008104801177978516,0.0005082152783870697,-0.11359300464391708,-0.04594944044947624
2026-04-30T16:26:01.817000+00:00,S006,48,50,1777566361771,1777566361877,1777566361817,background,1777566361610,-0.008983828127384186,0.0007857084274291992,-0.026032328605651855,0.017272813245654106,-0.0816536396741867,-0.02705836109817028
2026-04-30T16:26:01.817000+00:00,S006,48,50,1777566361771,1777566361877,1777566361817,background,1777566361630,-0.0056380704045295715,0.0006598830223083496,-0.005374431610107422,0.026398934423923492,-0.0176458191126585,-0.01969541423022747
2026-04-30T16:26:01.817000+00:00,S006,48,50,1777566361771,1777566361877,1777566361817,background,1777566361651,0.005934335291385651,0.009484708309173584,0.013090133666992188,-0.004203449934720993,0.011407213285565376,-0.03497610241174698
2026-04-30T16:26:01.817000+00:00,S006,48,50,1777566361771,1777566361877,1777566361817,background,1777566361671,-0.001102730631828308,-0.02172333002090454,-0.014493882656097412,0.036341313272714615,-0.005312758032232523,-0.018955959007143974
2026-04-30T16:26:01.817000+00:00,S006,48,50,1777566361771,1777566361877,1777566361817,background,1777566361691,-0.014854490756988525,0.02323371171951294,0.013833701610565186,0.13587163388729095,-0.03574070334434509,-0.02414768561720848
2026-04-30T16:26:01.817000+00:00,S006,48,50,1777566361771,1777566361877,1777566361817,background,1777566361711,-0.004827052354812622,0.028155148029327393,-0.009348511695861816,0.2709093391895294,-0.05702716112136841,-0.0010663887951523066
2026-04-30T16:26:01.817000+00:00,S006,48,50,1777566361771,1777566361877,1777566361817,background,1777566361731,-0.010283790528774261,-0.008825361728668213,-0.014193296432495117,0.28104108572006226,-0.04788871482014656,-0.000378813681891188
2026-04-30T16:26:01.817000+00:00,S006,48,50,1777566361771,1777566361877,1777566361817,background,1777566361751,-0.005249828100204468,-0.00501638650894165,-0.004889488220214844,0.27877524495124817,0.0017626897897571325,0.004935737233608961
2026-04-30T16:26:01.817000+00:00,S006,48,50,1777566361771,1777566361877,1777566361817,background,1777566361771,0.022558286786079407,0.0794329047203064,0.039700090885162354,0.5314362645149231,-0.035779207944869995,0.021045997738838196
2026-04-30T16:26:02.079000+00:00,S006,49,50,1777566361972,1777566362114,1777566362079,background,1777566361791,0.03131657838821411,0.06709671020507812,0.023207664489746094,0.8557900786399841,-0.13064564764499664,0.0481719970703125
2026-04-30T16:26:02.079000+00:00,S006,49,50,1777566361972,1777566362114,1777566362079,background,1777566361811,0.017493322491645813,0.07819479703903198,0.05903130769729614,1.0672613382339478,-0.16900092363357544,0.08295468986034393
2026-04-30T16:26:02.079000+00:00,S006,49,50,1777566361972,1777566362114,1777566362079,background,1777566361831,0.0013619214296340942,-0.01077568531036377,0.028987228870391846,0.8738458156585693,-0.14903591573238373,0.09885876625776291
2026-04-30T16:26:02.079000+00:00,S006,49,50,1777566361972,1777566362114,1777566362079,background,1777566361851,-0.05514272302389145,-0.10519695281982422,-0.023189425468444824,0.4165022373199463,-0.08085104078054428,0.05784593150019646
2026-04-30T16:26:02.079000+00:00,S006,49,50,1777566361972,1777566362114,1777566362079,background,1777566361872,-0.042827121913433075,-0.10629051923751831,-0.004716634750366211,-0.08717183768749237,-0.02460557222366333,0.030510392040014267
2026-04-30T16:26:02.079000+00:00,S006,49,50,1777566361972,1777566362114,1777566362079,background,1777566361892,-0.007356524467468262,-0.03865593671798706,-0.0012837648391723633,-0.3134816884994507,-0.03404906764626503,0.02988247200846672
2026-04-30T16:26:02.079000+00:00,S006,49,50,1777566361972,1777566362114,1777566362079,background,1777566361912,-0.013673678040504456,0.025462090969085693,0.011983752250671387,-0.21731573343276978,-0.03400154784321785,0.02822689339518547
2026-04-30T16:26:02.079000+00:00,S006,49,50,1777566361972,1777566362114,1777566362079,background,1777566361932,-0.0009876489639282227,0.047491252422332764,0.00778883695602417,-0.057639509439468384,-0.03499148041009903,0.023843914270401
2026-04-30T16:26:02.079000+00:00,S006,49,50,1777566361972,1777566362114,1777566362079,background,1777566361952,0.007819265127182007,0.005075335502624512,-0.03163480758666992,0.0608099028468132,-0.0272122360765934,0.041756387799978256
2026-04-30T16:26:02.079000+00:00,S006,49,50,1777566361972,1777566362114,1777566362079,background,1777566361972,0.009770818054676056,-0.016506433486938477,-0.004620194435119629,-0.00041350536048412323,-0.017536286264657974,0.02843525819480419
2026-04-30T16:26:02.252000+00:00,S006,50,50,1777566362173,1777566362305,1777566362252,background,1777566361992,-0.013207025825977325,-0.030524909496307373,-0.024264156818389893,0.021000441163778305,-0.01865968480706215,0.03058038093149662
2026-04-30T16:26:02.252000+00:00,S006,50,50,1777566362173,1777566362305,1777566362252,background,1777566362012,-0.03369700908660889,-0.0031734108924865723,-0.042820751667022705,0.14003309607505798,0.00012880258145742118,0.0036846904549747705
2026-04-30T16:26:02.252000+00:00,S006,50,50,1777566362173,1777566362305,1777566362252,background,1777566362032,-0.025505676865577698,-0.020866692066192627,-0.010026812553405762,0.10494060814380646,0.010086855851113796,-0.025380518287420273
2026-04-30T16:26:02.252000+00:00,S006,50,50,1777566362173,1777566362305,1777566362252,background,1777566362052,-0.007768712937831879,-0.028892695903778076,-0.015595018863677979,0.04454411566257477,0.03596000000834465,-0.02450135350227356
2026-04-30T16:26:02.252000+00:00,S006,50,50,1777566362173,1777566362305,1777566362252,background,1777566362072,-0.0006081536412239075,-0.019451022148132324,-0.023389101028442383,0.04612097144126892,0.07310467213392258,-0.028003625571727753
2026-04-30T16:26:02.252000+00:00,S006,50,50,1777566362173,1777566362305,1777566362252,background,1777566362093,-0.008101135492324829,-0.029510557651519775,-0.025741219520568848,-0.030434787273406982,0.08274180442094803,-0.034365009516477585
2026-04-30T16:26:02.252000+00:00,S006,50,50,1777566362173,1777566362305,1777566362252,background,1777566362113,-0.009460173547267914,-0.004093050956726074,0.001683950424194336,-0.10078911483287811,0.09286954253911972,-0.04343797639012337
2026-04-30T16:26:02.252000+00:00,S006,50,50,1777566362173,1777566362305,1777566362252,background,1777566362133,0.010987326502799988,0.042277395725250244,0.01618015766143799,0.005082191899418831,0.08424584567546844,-0.037016611546278
2026-04-30T16:26:02.252000+00:00,S006,50,50,1777566362173,1777566362305,1777566362252,background,1777566362153,0.010018967092037201,0.01964181661605835,0.035884976387023926,0.07081806659698486,0.07551805675029755,-0.025081871077418327
2026-04-30T16:26:02.252000+00:00,S006,50,50,1777566362173,1777566362305,1777566362252,background,1777566362173,0.007839687168598175,0.02316361665725708,0.051699042320251465,0.03699645400047302,0.06486818939447403,-0.023803234100341797
2026-04-30T16:26:02.434000+00:00,S006,51,50,1777566362374,1777566362491,1777566362434,background,1777566362196,0.011579424142837524,-0.003835737705230713,0.0338902473449707,-0.03317145258188248,0.034398358315229416,-0.0027371493633836508
