local_ts,local_ts_ms,session_id,sequence,sample_rate_hz,watch_sent_at,phone_received_at,server_received_ms,source,ts,ax,ay,az,rx,ry,rz
2026-05-01T09:09:37.663000+00:00,1777626577663,S007,0,50,1777626577561,1777626577607,1777626577663,message,1777626577381,-0.004327818751335144,0.01054324209690094,0.006878793239593506,0.22238871455192566,-0.013340448029339314,0.03141874074935913
2026-05-01T09:09:37.663000+00:00,1777626577663,S007,0,50,1777626577561,1777626577607,1777626577663,message,1777626577400,0.008336558938026428,-0.001971650868654251,-0.0036542415618896484,0.17778556048870087,0.003647742560133338,0.032564856112003326
2026-05-01T09:09:37.663000+00:00,1777626577663,S007,0,50,1777626577561,1777626577607,1777626577663,message,1777626577420,0.00049552321434021,0.031875498592853546,-0.018100976943969727,0.28341609239578247,0.02315322868525982,0.031204406172037125
2026-05-01T09:09:37.663000+00:00,1777626577663,S007,0,50,1777626577561,1777626577607,1777626577663,message,1777626577440,-0.00614398717880249,0.039029184728860855,-0.023981451988220215,0.3997983932495117,0.05747433379292488,0.051780469715595245
2026-05-01T09:09:37.663000+00:00,1777626577663,S007,0,50,1777626577561,1777626577607,1777626577663,message,1777626577460,-0.010161563754081726,0.050594888627529144,-0.01883232593536377,0.44885513186454773,0.06979880481958389,0.08885699510574341
2026-05-01T09:09:37.663000+00:00,1777626577663,S007,0,50,1777626577561,1777626577607,1777626577663,message,1777626577482,-0.011288806796073914,0.04312683269381523,-0.013142943382263184,0.456342875957489,0.062453653663396835,0.1320476084947586
2026-05-01T09:09:37.663000+00:00,1777626577663,S007,0,50,1777626577561,1777626577607,1777626577663,message,1777626577501,-0.032681435346603394,0.038287512958049774,-0.02740645408630371,0.43750450015068054,0.07961296290159225,0.20259825885295868
2026-05-01T09:09:37.663000+00:00,1777626577663,S007,0,50,1777626577561,1777626577607,1777626577663,message,1777626577521,-0.0174761563539505,0.07232274860143661,-0.011674940586090088,0.4711593985557556,0.0772773027420044,0.2713007926940918
2026-05-01T09:09:37.663000+00:00,1777626577663,S007,0,50,1777626577561,1777626577607,1777626577663,message,1777626577541,0.0017399191856384277,0.060821812599897385,-0.014610826969146729,0.48938021063804626,0.10378111153841019,0.32610011100769043
2026-05-01T09:09:37.663000+00:00,1777626577663,S007,0,50,1777626577561,1777626577607,1777626577663,message,1777626577561,0.01270204782485962,0.07425785809755325,-0.04820352792739868,0.6139543056488037,0.15209461748600006,0.3689489960670471
2026-05-01T09:09:37.841000+00:00,1777626577841,S007,1,50,1777626577762,1777626577844,1777626577841,message,1777626577581,-2.759695053100586e-05,0.08777544647455215,-0.1074303388595581,0.7060968279838562,0.2487391084432602,0.4317769706249237
2026-05-01T09:09:37.841000+00:00,1777626577841,S007,1,50,1777626577762,1777626577844,1777626577841,message,1777626577601,-0.004444211721420288,0.07095348834991455,-0.06900089979171753,0.8329412937164307,0.2637771666049957,0.4449966251850128
2026-05-01T09:09:37.841000+00:00,1777626577841,S007,1,50,1777626577762,1777626577844,1777626577841,message,1777626577621,0.023620888590812683,0.02595270425081253,0.08281147480010986,0.7411413788795471,0.13010352849960327,0.37729135155677795
2026-05-01T09:09:37.841000+00:00,1777626577841,S007,1,50,1777626577762,1777626577844,1777626577841,message,1777626577641,0.02622140944004059,-0.13049167394638062,0.17932438850402832,0.40114620327949524,0.04858017712831497,0.33741849660873413
2026-05-01T09:09:37.841000+00:00,1777626577841,S007,1,50,1777626577762,1777626577844,1777626577841,message,1777626577662,0.011770635843276978,-0.08856471627950668,0.06047642230987549,0.33155861496925354,0.02401278167963028,0.32680875062942505
2026-05-01T09:09:37.841000+00:00,1777626577841,S007,1,50,1777626577762,1777626577844,1777626577841,message,1777626577682,-0.0034060031175613403,-0.010329730808734894,-0.0572887659072876,0.3594437837600708,0.0553017295897007,0.3251940906047821
2026-05-01T09:09:37.841000+00:00,1777626577841,S007,1,50,1777626577762,1777626577844,1777626577841,message,1777626577701,-0.006852015852928162,0.026021331548690796,-0.05015408992767334,0.3985898494720459,0.05846510827541351,0.36361265182495117
2026-05-01T09:09:37.841000+00:00,1777626577841,S007,1,50,1777626577762,1777626577844,1777626577841,message,1777626577722,-0.00532880425453186,-0.008802622556686401,0.02789783477783203,0.426493376493454,0.00667537609115243,0.2963111996650696
2026-05-01T09:09:37.841000+00:00,1777626577841,S007,1,50,1777626577762,1777626577844,1777626577841,message,1777626577742,-0.03381575644016266,-0.12273982912302017,0.08604532480239868,0.13624398410320282,-0.03263409808278084,0.23749536275863647
2026-05-01T09:09:37.841000+00:00,1777626577841,S007,1,50,1777626577762,1777626577844,1777626577841,message,1777626577762,-0.049258917570114136,-0.1022285670042038,0.0763009786605835,-0.02715427055954933,-0.04663863405585289,0.2254079133272171
2026-05-01T09:09:38.132000+00:00,1777626578132,S007,2,50,1777626577963,1777626578134,1777626578132,message,1777626577783,-0.0323297381401062,-0.013840317726135254,-0.008247971534729004,0.0342736691236496,-0.024553192779421806,0.22574394941329956
2026-05-01T09:09:38.132000+00:00,1777626578132,S007,2,50,1777626577963,1777626578134,1777626578132,message,1777626577802,-0.0056445300579071045,0.04463738203048706,-0.08109539747238159,0.131004199385643,0.0250877495855093,0.2525092661380768
2026-05-01T09:09:38.132000+00:00,1777626578132,S007,2,50,1777626577963,1777626578134,1777626578132,message,1777626577822,-0.0005714446306228638,0.029028430581092834,-0.04552912712097168,0.20279210805892944,0.012175070121884346,0.23162469267845154
2026-05-01T09:09:38.132000+00:00,1777626578132,S007,2,50,1777626577963,1777626578134,1777626578132,message,1777626577842,-0.00261785089969635,-0.07499632239341736,0.025728464126586914,0.08638134598731995,-0.002120588207617402,0.16149461269378662
2026-05-01T09:09:38.132000+00:00,1777626578132,S007,2,50,1777626577963,1777626578134,1777626578132,message,1777626577862,-0.027453050017356873,-0.10065434873104095,0.014877796173095703,-0.01685529388487339,0.012390938587486744,0.1338801234960556
2026-05-01T09:09:38.132000+00:00,1777626578132,S007,2,50,1777626577963,1777626578134,1777626578132,message,1777626577883,-0.009603142738342285,-0.01237170398235321,-0.03303402662277222,0.09152897447347641,0.04992777481675148,0.11931173503398895
2026-05-01T09:09:38.132000+00:00,1777626578132,S007,2,50,1777626577963,1777626578134,1777626578132,message,1777626577902,-0.011745288968086243,0.010056570172309875,-0.061116814613342285,0.13624796271324158,0.11563887447118759,0.13508537411689758
2026-05-01T09:09:38.132000+00:00,1777626578132,S007,2,50,1777626577963,1777626578134,1777626578132,message,1777626577922,-0.016308382153511047,0.009902045130729675,-0.06616073846817017,0.19453683495521545,0.10793580114841461,0.12175215035676956
2026-05-01T09:09:38.132000+00:00,1777626578132,S007,2,50,1777626577963,1777626578134,1777626578132,message,1777626577943,-0.008040621876716614,-0.023297876119613647,0.02111142873764038,0.12408104538917542,0.0927509143948555,0.08790683001279831
2026-05-01T09:09:38.132000+00:00,1777626578132,S007,2,50,1777626577963,1777626578134,1777626578132,message,1777626577963,-0.018325328826904297,-0.04628226161003113,0.02497386932373047,-0.030532756820321083,0.08298159390687943,0.09839441627264023
2026-05-01T09:09:38.244000+00:00,1777626578244,S007,3,50,1777626578165,1777626578247,1777626578244,message,1777626577983,-0.0010504424571990967,0.0034293681383132935,0.005345046520233154,-0.02725786715745926,0.07970678806304932,0.09953280538320541
2026-05-01T09:09:38.244000+00:00,1777626578244,S007,3,50,1777626578165,1777626578247,1777626578244,message,1777626578003,0.022259995341300964,0.03724144399166107,-0.019138634204864502,0.0508531779050827,0.10046315938234329,0.12787486612796783
2026-05-01T09:09:38.244000+00:00,1777626578244,S007,3,50,1777626578165,1777626578247,1777626578244,message,1777626578023,0.012864172458648682,0.03620314598083496,-0.02661353349685669,0.06629818677902222,0.08588003367185593,0.1487356722354889
2026-05-01T09:09:38.244000+00:00,1777626578244,S007,3,50,1777626578165,1777626578247,1777626578244,message,1777626578043,0.03152674436569214,0.010068550705909729,0.031189441680908203,0.04039281606674194,0.049294363707304,0.15305189788341522
2026-05-01T09:09:38.244000+00:00,1777626578244,S007,3,50,1777626578165,1777626578247,1777626578244,message,1777626578065,0.02472183108329773,-0.004287585616111755,0.05375099182128906,-0.01872297003865242,0.007923942059278488,0.18134862184524536
2026-05-01T09:09:38.244000+00:00,1777626578244,S007,3,50,1777626578165,1777626578247,1777626578244,message,1777626578084,0.007175803184509277,0.027248606085777283,0.017587602138519287,0.05100791156291962,-0.007194747216999531,0.19975921511650085
2026-05-01T09:09:38.244000+00:00,1777626578244,S007,3,50,1777626578165,1777626578247,1777626578244,message,1777626578104,-0.0037029385566711426,-0.012246593832969666,-0.029426515102386475,-0.005020206794142723,0.012205582112073898,0.19251462817192078
2026-05-01T09:09:38.244000+00:00,1777626578244,S007,3,50,1777626578165,1777626578247,1777626578244,message,1777626578124,-0.02162371575832367,-0.03570747375488281,-0.031920552253723145,-0.05181887000799179,0.03129051625728607,0.181067556142807
2026-05-01T09:09:38.244000+00:00,1777626578244,S007,3,50,1777626578165,1777626578247,1777626578244,message,1777626578144,-0.015495911240577698,-0.011932373046875,-0.00015246868133544922,7.735006511211395e-05,0.034439437091350555,0.16764533519744873
2026-05-01T09:09:38.244000+00:00,1777626578244,S007,3,50,1777626578165,1777626578247,1777626578244,message,1777626578165,-0.015485301613807678,-0.004891589283943176,-0.0027585625648498535,0.04580196365714073,0.028395622968673706,0.1583479791879654
2026-05-01T09:09:38.493000+00:00,1777626578493,S007,4,50,1777626578367,1777626578474,1777626578493,message,1777626578184,0.011724397540092468,-0.012572377920150757,-0.0025319457054138184,0.06908997148275375,0.037987831979990005,0.14156658947467804
2026-05-01T09:09:38.493000+00:00,1777626578493,S007,4,50,1777626578367,1777626578474,1777626578493,message,1777626578204,0.002082139253616333,-0.019452214241027832,-0.02411830425262451,0.03638182580471039,0.05948106572031975,0.12834693491458893
2026-05-01T09:09:38.493000+00:00,1777626578493,S007,4,50,1777626578367,1777626578474,1777626578493,message,1777626578224,-0.004444733262062073,-0.019786953926086426,-0.03109794855117798,0.007704641669988632,0.08207011222839355,0.1253948211669922
2026-05-01T09:09:38.493000+00:00,1777626578493,S007,4,50,1777626578367,1777626578474,1777626578493,message,1777626578244,-0.007803812623023987,0.009161874651908875,-0.010826170444488525,0.04462138190865517,0.07750698179006577,0.127930149435997
2026-05-01T09:09:38.493000+00:00,1777626578493,S007,4,50,1777626578367,1777626578474,1777626578493,message,1777626578265,-0.0022095590829849243,0.02165864408016205,0.010171115398406982,0.07927736639976501,0.060059353709220886,0.1337830275297165
2026-05-01T09:09:38.493000+00:00,1777626578493,S007,4,50,1777626578367,1777626578474,1777626578493,message,1777626578284,-0.005024611949920654,0.005372941493988037,-0.006713688373565674,0.0890389159321785,0.07204604893922806,0.1423502117395401
2026-05-01T09:09:38.493000+00:00,1777626578493,S007,4,50,1777626578367,1777626578474,1777626578493,message,1777626578304,-0.004334598779678345,0.007464393973350525,-0.025061845779418945,0.06717994809150696,0.09436722099781036,0.15333734452724457
2026-05-01T09:09:38.493000+00:00,1777626578493,S007,4,50,1777626578367,1777626578474,1777626578493,message,1777626578325,0.013228699564933777,0.0016643255949020386,-0.037966251373291016,0.04481153190135956,0.11757640540599823,0.1442262977361679
2026-05-01T09:09:38.493000+00:00,1777626578493,S007,4,50,1777626578367,1777626578474,1777626578493,message,1777626578345,0.013673201203346252,-0.014482766389846802,-0.01025170087814331,-0.01896584965288639,0.11752793192863464,0.1329541951417923
2026-05-01T09:09:38.493000+00:00,1777626578493,S007,4,50,1777626578367,1777626578474,1777626578493,message,1777626578367,0.006820887327194214,-0.007312148809432983,0.011286735534667969,0.007570153102278709,0.1064484566450119,0.13808605074882507
2026-05-01T09:09:38.595000+00:00,1777626578595,S007,5,50,1777626578566,1777626578597,1777626578595,message,1777626578385,0.00993606448173523,0.017526686191558838,-0.0034076571464538574,0.06282488256692886,0.1027587279677391,0.13041025400161743
2026-05-01T09:09:38.595000+00:00,1777626578595,S007,5,50,1777626578566,1777626578597,1777626578595,message,1777626578405,0.00918532907962799,-0.0038043856620788574,-0.011094212532043457,0.015738070011138916,0.10336398333311081,0.1328366994857788
2026-05-01T09:09:38.595000+00:00,1777626578595,S007,5,50,1777626578566,1777626578597,1777626578595,message,1777626578426,0.012622952461242676,-0.01843947172164917,0.0031099915504455566,-0.05535847693681717,0.08854353427886963,0.1219710037112236
2026-05-01T09:09:38.595000+00:00,1777626578595,S007,5,50,1777626578566,1777626578597,1777626578595,message,1777626578445,0.00820186734199524,-0.02469669282436371,0.017968058586120605,-0.07603232562541962,0.06655734777450562,0.12637971341609955
2026-05-01T09:09:38.595000+00:00,1777626578595,S007,5,50,1777626578566,1777626578597,1777626578595,message,1777626578466,0.0021212100982666016,0.0029136091470718384,0.0026031136512756348,0.01642356626689434,0.05299140140414238,0.11719920486211777
2026-05-01T09:09:38.595000+00:00,1777626578595,S007,5,50,1777626578566,1777626578597,1777626578595,message,1777626578485,-0.006716027855873108,-0.009370371699333191,-0.009885549545288086,0.029041357338428497,0.05231773480772972,0.1181650310754776
2026-05-01T09:09:38.595000+00:00,1777626578595,S007,5,50,1777626578566,1777626578597,1777626578595,message,1777626578506,-0.013272061944007874,-0.006657719612121582,-0.013034343719482422,0.002033175900578499,0.06853170692920685,0.11402600258588791
2026-05-01T09:09:38.595000+00:00,1777626578595,S007,5,50,1777626578566,1777626578597,1777626578595,message,1777626578526,-0.012772858142852783,-0.011585399508476257,-0.03164035081863403,0.0014749784022569656,0.08725544065237045,0.1272326111793518
2026-05-01T09:09:38.595000+00:00,1777626578595,S007,5,50,1777626578566,1777626578597,1777626578595,message,1777626578545,-0.011499136686325073,-0.010868772864341736,-0.025444746017456055,-0.008791775442659855,0.06867384165525436,0.11728496849536896
2026-05-01T09:09:38.595000+00:00,1777626578595,S007,5,50,1777626578566,1777626578597,1777626578595,message,1777626578566,-0.013353243470191956,-0.011818736791610718,-0.004274606704711914,-0.021217286586761475,0.06630667299032211,0.11615114659070969
2026-05-01T09:09:38.795000+00:00,1777626578795,S007,6,50,1777626578768,1777626578776,1777626578795,message,1777626578586,-0.017368555068969727,-0.002617180347442627,-0.0029755830764770508,-0.03889002278447151,0.06111849099397659,0.10317564010620117
2026-05-01T09:09:38.795000+00:00,1777626578795,S007,6,50,1777626578768,1777626578776,1777626578795,message,1777626578606,-0.019483551383018494,-0.004640370607376099,-0.015287637710571289,-0.039328910410404205,0.07096435129642487,0.10782194882631302
2026-05-01T09:09:38.795000+00:00,1777626578795,S007,6,50,1777626578768,1777626578776,1777626578795,message,1777626578626,-0.024366185069084167,-0.0009476989507675171,-0.0107039213180542,-0.062070976942777634,0.06673673540353775,0.11166910082101822
2026-05-01T09:09:38.795000+00:00,1777626578795,S007,6,50,1777626578768,1777626578776,1777626578795,message,1777626578646,-0.026946663856506348,-0.02533814311027527,-0.010249435901641846,-0.2000453621149063,0.0630822703242302,0.0630439892411232
2026-05-01T09:09:38.795000+00:00,1777626578795,S007,6,50,1777626578768,1777626578776,1777626578795,message,1777626578667,-0.04084661602973938,-0.07920005917549133,0.0011991262435913086,-0.21990427374839783,0.08179774880409241,0.015220060013234615
2026-05-01T09:09:38.795000+00:00,1777626578795,S007,6,50,1777626578768,1777626578776,1777626578795,message,1777626578686,-0.041870906949043274,-0.0073368847370147705,-0.005315601825714111,0.033833447843790054,0.09273352473974228,-0.021856307983398438
2026-05-01T09:09:38.795000+00:00,1777626578795,S007,6,50,1777626578768,1777626578776,1777626578795,message,1777626578706,-0.04613654315471649,-0.02078738808631897,-0.05225461721420288,0.08710919320583344,0.13223733007907867,-0.04576760530471802
2026-05-01T09:09:38.795000+00:00,1777626578795,S007,6,50,1777626578768,1777626578776,1777626578795,message,1777626578726,-0.03193061053752899,-0.03260040283203125,-0.05610370635986328,0.024390947073698044,0.15509772300720215,-0.04542586952447891
2026-05-01T09:09:38.795000+00:00,1777626578795,S007,6,50,1777626578768,1777626578776,1777626578795,message,1777626578747,-0.02280604839324951,-0.046926870942115784,-0.04674220085144043,-0.08053813874721527,0.16598787903785706,-0.08358843624591827
2026-05-01T09:09:38.795000+00:00,1777626578795,S007,6,50,1777626578768,1777626578776,1777626578795,message,1777626578768,-0.02504292130470276,-0.0003603696823120117,-0.0016758441925048828,0.0361541286110878,0.16143730282783508,-0.0641489028930664
2026-05-01T09:09:38.946000+00:00,1777626578946,S007,7,50,1777626578968,1777626578951,1777626578946,message,1777626578787,-0.04370830953121185,0.04711747169494629,-0.026894211769104004,0.2580665647983551,0.1967812478542328,-0.07976322621107101
2026-05-01T09:09:38.946000+00:00,1777626578946,S007,7,50,1777626578968,1777626578951,1777626578946,message,1777626578807,-0.08308133482933044,-0.01593652367591858,-0.08681279420852661,0.24504129588603973,0.24240374565124512,-0.07697974890470505
2026-05-01T09:09:38.946000+00:00,1777626578946,S007,7,50,1777626578968,1777626578951,1777626578946,message,1777626578827,-0.06178751587867737,0.03546804189682007,-0.042977213859558105,0.205604687333107,0.19798754155635834,-0.0929524302482605
2026-05-01T09:09:38.946000+00:00,1777626578946,S007,7,50,1777626578968,1777626578951,1777626578946,message,1777626578847,-0.049429044127464294,-0.032509878277778625,0.01728755235671997,0.011049041524529457,0.1784130483865738,-0.09072432667016983
2026-05-01T09:09:38.946000+00:00,1777626578946,S007,7,50,1777626578968,1777626578951,1777626578946,message,1777626578867,-0.04523642361164093,-0.010132953524589539,-0.0015543103218078613,-0.06248269975185394,0.2110028713941574,-0.08874420821666718
2026-05-01T09:09:38.946000+00:00,1777626578946,S007,7,50,1777626578968,1777626578951,1777626578946,message,1777626578887,-0.061091065406799316,-0.00938887894153595,-0.041847169399261475,-0.021622085943818092,0.27913567423820496,-0.12602724134922028
2026-05-01T09:09:38.946000+00:00,1777626578946,S007,7,50,1777626578968,1777626578951,1777626578946,message,1777626578907,-0.06301017105579376,0.014069810509681702,-0.07050842046737671,0.18441496789455414,0.2932649850845337,-0.1772214025259018
2026-05-01T09:09:38.946000+00:00,1777626578946,S007,7,50,1777626578968,1777626578951,1777626578946,message,1777626578927,-0.03425374627113342,0.004604846239089966,-0.03214919567108154,0.10072673112154007,0.2761707305908203,-0.19122125208377838
2026-05-01T09:09:38.946000+00:00,1777626578946,S007,7,50,1777626578968,1777626578951,1777626578946,message,1777626578947,-0.022246122360229492,-0.05623027682304382,0.012929975986480713,-0.1781376600265503,0.2395346462726593,-0.24150601029396057
2026-05-01T09:09:38.946000+00:00,1777626578946,S007,7,50,1777626578968,1777626578951,1777626578946,message,1777626578968,-0.01722279191017151,-0.06378892064094543,0.037394821643829346,-0.2809354066848755,0.19493719935417175,-0.26907527446746826
2026-05-01T09:09:39.177000+00:00,1777626579177,S007,8,50,1777626579169,1777626579179,1777626579177,message,1777626578988,-0.015886008739471436,-0.023050859570503235,0.003894329071044922,-0.189276322722435,0.1904238611459732,-0.2692764699459076
2026-05-01T09:09:39.177000+00:00,1777626579177,S007,8,50,1777626579169,1777626579179,1777626579177,message,1777626579008,-0.006545007228851318,0.04879918694496155,-0.03235340118408203,-0.07974051684141159,0.19716501235961914,-0.2691097855567932
2026-05-01T09:09:39.177000+00:00,1777626579177,S007,8,50,1777626579169,1777626579179,1777626579177,message,1777626579027,0.0061421990394592285,0.021069183945655823,-0.034246742725372314,-0.18233853578567505,0.2292507439851761,-0.3070322275161743
2026-05-01T09:09:39.177000+00:00,1777626579177,S007,8,50,1777626579169,1777626579179,1777626579177,message,1777626579047,-0.006288200616836548,-0.007423430681228638,-0.021281659603118896,-0.2909955084323883,0.25954556465148926,-0.3719419538974762
2026-05-01T09:09:39.177000+00:00,1777626579177,S007,8,50,1777626579169,1777626579179,1777626579177,message,1777626579068,-0.0011069774627685547,-0.02838844060897827,-0.004397094249725342,-0.2734663188457489,0.31162846088409424,-0.4197673797607422
2026-05-01T09:09:39.177000+00:00,1777626579177,S007,8,50,1777626579169,1777626579179,1777626579177,message,1777626579088,-0.0067330002784729,0.01448129117488861,0.011902093887329102,-0.17731980979442596,0.3418065309524536,-0.4310806095600128
2026-05-01T09:09:39.177000+00:00,1777626579177,S007,8,50,1777626579169,1777626579179,1777626579177,message,1777626579108,0.0027441978454589844,0.0573464035987854,0.004474282264709473,-0.14921945333480835,0.36548513174057007,-0.4082455039024353
2026-05-01T09:09:39.177000+00:00,1777626579177,S007,8,50,1777626579169,1777626579179,1777626579177,message,1777626579129,0.010991841554641724,0.0582253634929657,-0.015151023864746094,-0.1837518811225891,0.3811790943145752,-0.434832364320755
2026-05-01T09:09:39.177000+00:00,1777626579177,S007,8,50,1777626579169,1777626579179,1777626579177,message,1777626579148,0.004371762275695801,0.005385562777519226,0.014830291271209717,-0.3079792857170105,0.3860633671283722,-0.4979453384876251
2026-05-01T09:09:39.177000+00:00,1777626579177,S007,8,50,1777626579169,1777626579179,1777626579177,message,1777626579169,-0.006394475698471069,-0.05309073626995087,0.05301719903945923,-0.5705413818359375,0.3934849500656128,-0.599946916103363
2026-05-01T09:09:39.396000+00:00,1777626579396,S007,9,50,1777626579370,1777626579390,1777626579396,message,1777626579188,-0.013241827487945557,-0.04162583500146866,0.091957688331604,-1.1108318567276,0.4294261038303375,-0.5683639049530029
2026-05-01T09:09:39.396000+00:00,1777626579396,S007,9,50,1777626579370,1777626579390,1777626579396,message,1777626579208,0.002504110336303711,0.03261357918381691,0.09205937385559082,-1.8584764003753662,0.4425595700740814,-0.45304808020591736
2026-05-01T09:09:39.396000+00:00,1777626579396,S007,9,50,1777626579370,1777626579390,1777626579396,message,1777626579229,0.01561439037322998,0.07661846280097961,0.10312986373901367,-2.2127938270568848,0.4222537577152252,-0.41579166054725647
2026-05-01T09:09:39.396000+00:00,1777626579396,S007,9,50,1777626579370,1777626579390,1777626579396,message,1777626579249,0.025027334690093994,0.11900480091571808,0.0712171196937561,-2.157719373703003,0.4717065989971161,-0.3334614932537079
2026-05-01T09:09:39.396000+00:00,1777626579396,S007,9,50,1777626579370,1777626579390,1777626579396,message,1777626579269,0.01072782278060913,0.0654846802353859,0.021490812301635742,-2.3224518299102783,0.5458159446716309,-0.2311592996120453
2026-05-01T09:09:39.396000+00:00,1777626579396,S007,9,50,1777626579370,1777626579390,1777626579396,message,1777626579289,0.02156016230583191,0.0007192641496658325,0.011423289775848389,-2.9662704467773438,0.6756395101547241,-0.16353291273117065
2026-05-01T09:09:39.396000+00:00,1777626579396,S007,9,50,1777626579370,1777626579390,1777626579396,message,1777626579309,0.0353015661239624,-0.010043814778327942,0.042745769023895264,-3.426447868347168,0.6920936107635498,0.04084552824497223
2026-05-01T09:09:39.396000+00:00,1777626579396,S007,9,50,1777626579370,1777626579390,1777626579396,message,1777626579329,0.07274112105369568,0.1838822364807129,-0.055298686027526855,-2.735577344894409,0.67494797706604,0.12063143402338028
2026-05-01T09:09:39.396000+00:00,1777626579396,S007,9,50,1777626579370,1777626579390,1777626579396,message,1777626579350,0.05108049511909485,0.09551647305488586,-0.07565933465957642,-2.4041078090667725,0.6741437315940857,0.15998032689094543
2026-05-01T09:09:39.396000+00:00,1777626579396,S007,9,50,1777626579370,1777626579390,1777626579396,message,1777626579369,0.020842939615249634,-0.13165909051895142,-0.024862229824066162,-2.7281923294067383,0.6802811622619629,0.17082324624061584
2026-05-01T09:09:39.564000+00:00,1777626579564,S007,10,50,1777626579570,1777626579566,1777626579564,message,1777626579389,0.0005736052989959717,-0.1556323766708374,0.02444016933441162,-3.0012192726135254,0.6560242176055908,0.19129793345928192
2026-05-01T09:09:39.564000+00:00,1777626579564,S007,10,50,1777626579570,1777626579566,1777626579564,message,1777626579409,0.011711448431015015,-0.12192168831825256,0.03465843200683594,-2.937999963760376,0.5585663914680481,0.15584461390972137
2026-05-01T09:09:39.564000+00:00,1777626579564,S007,10,50,1777626579570,1777626579566,1777626579564,message,1777626579429,0.035319507122039795,-0.12812533974647522,0.08937740325927734,-2.8394699096679688,0.4370118975639343,0.1145116537809372
2026-05-01T09:09:39.564000+00:00,1777626579564,S007,10,50,1777626579570,1777626579566,1777626579564,message,1777626579450,-0.012655258178710938,-0.18185782432556152,0.06394988298416138,-3.1233370304107666,0.4006509482860565,0.0380622074007988
2026-05-01T09:09:39.564000+00:00,1777626579564,S007,10,50,1777626579570,1777626579566,1777626579564,message,1777626579469,-0.01848742365837097,-0.21183735132217407,0.09284371137619019,-3.729518175125122,0.30711817741394043,-0.051417820155620575
2026-05-01T09:09:39.564000+00:00,1777626579564,S007,10,50,1777626579570,1777626579566,1777626579564,message,1777626579490,0.0062649548053741455,-0.22260290384292603,0.17564231157302856,-4.020466327667236,0.15655577182769775,-0.13111020624637604
2026-05-01T09:09:39.564000+00:00,1777626579564,S007,10,50,1777626579570,1777626579566,1777626579564,message,1777626579510,-0.019003689289093018,-0.12348300218582153,0.10351282358169556,-3.556887626647949,0.04541843384504318,-0.2722940742969513
2026-05-01T09:09:39.564000+00:00,1777626579564,S007,10,50,1777626579570,1777626579566,1777626579564,message,1777626579530,-0.010255962610244751,0.04411184787750244,-0.07352292537689209,-2.604463577270508,0.06430945545434952,-0.38479921221733093
2026-05-01T09:09:39.564000+00:00,1777626579564,S007,10,50,1777626579570,1777626579566,1777626579564,message,1777626579551,-0.002657383680343628,-0.04033327102661133,-0.07189130783081055,-2.4395081996917725,0.11308768391609192,-0.5180935859680176
2026-05-01T09:09:39.564000+00:00,1777626579564,S007,10,50,1777626579570,1777626579566,1777626579564,message,1777626579570,-0.032473236322402954,-0.12236493825912476,-0.048847496509552,-2.6977427005767822,0.24298043549060822,-0.6015607118606567
2026-05-01T09:09:39.757000+00:00,1777626579757,S007,11,50,1777626579771,1777626579751,1777626579757,message,1777626579590,-0.02943357825279236,-0.1774156093597412,-0.040285587310791016,-3.090688943862915,0.30611374974250793,-0.6378299593925476
2026-05-01T09:09:39.757000+00:00,1777626579757,S007,11,50,1777626579771,1777626579751,1777626579757,message,1777626579611,0.0001678764820098877,-0.045231640338897705,0.04295557737350464,-2.948727607727051,0.2940162718296051,-0.6810691356658936
2026-05-01T09:09:39.757000+00:00,1777626579757,S007,11,50,1777626579771,1777626579751,1777626579757,message,1777626579630,-0.0007439851760864258,0.000774681568145752,-0.005804091691970825,-2.556486129760742,0.256413996219635,-0.6906335949897766
2026-05-01T09:09:39.757000+00:00,1777626579757,S007,11,50,1777626579771,1777626579751,1777626579757,message,1777626579651,-0.02830582857131958,0.0406307578086853,-0.10903218388557434,-2.0194642543792725,0.29394859075546265,-0.6665570139884949
2026-05-01T09:09:39.757000+00:00,1777626579757,S007,11,50,1777626579771,1777626579751,1777626579757,message,1777626579671,-0.020172476768493652,0.06774622201919556,-0.13931038975715637,-1.670328140258789,0.3491416275501251,-0.594991147518158
2026-05-01T09:09:39.757000+00:00,1777626579757,S007,11,50,1777626579771,1777626579751,1777626579757,message,1777626579690,-0.009705036878585815,0.04101669788360596,-0.08019380271434784,-1.6202788352966309,0.37943875789642334,-0.5667861104011536
2026-05-01T09:09:39.757000+00:00,1777626579757,S007,11,50,1777626579771,1777626579751,1777626579757,message,1777626579711,0.014069944620132446,-0.04517495632171631,-0.02477949857711792,-1.4449748992919922,0.3848627209663391,-0.5984736084938049
2026-05-01T09:09:39.757000+00:00,1777626579757,S007,11,50,1777626579771,1777626579751,1777626579757,message,1777626579731,0.006829798221588135,0.029814720153808594,-0.039770469069480896,-1.041598916053772,0.36538875102996826,-0.6089738011360168
2026-05-01T09:09:39.757000+00:00,1777626579757,S007,11,50,1777626579771,1777626579751,1777626579757,message,1777626579758,0.003325045108795166,0.05601835250854492,-0.12151052057743073,-0.6209140419960022,0.35997992753982544,-0.615999698638916
2026-05-01T09:09:39.757000+00:00,1777626579757,S007,11,50,1777626579771,1777626579751,1777626579757,message,1777626579771,-0.010888248682022095,0.047112882137298584,-0.09837202727794647,-0.2732284963130951,0.375927597284317,-0.6031492948532104
2026-05-01T09:09:40.305000+00:00,1777626580305,S007,12,50,1777626579973,1777626580131,1777626580305,message,1777626579791,-0.006156265735626221,0.05040931701660156,-0.06176108121871948,-0.30352434515953064,0.39337754249572754,-0.6029233336448669
2026-05-01T09:09:40.305000+00:00,1777626580305,S007,12,50,1777626579973,1777626580131,1777626580305,message,1777626579811,0.00022146105766296387,0.011777937412261963,-0.009964942932128906,-0.4577900767326355,0.3783053457736969,-0.5910070538520813
2026-05-01T09:09:40.305000+00:00,1777626580305,S007,12,50,1777626579973,1777626580131,1777626580305,message,1777626579832,0.02235063910484314,0.022834837436676025,0.0027174949645996094,-0.47893026471138,0.3285216689109802,-0.5651065111160278
2026-05-01T09:09:40.305000+00:00,1777626580305,S007,12,50,1777626579973,1777626580131,1777626580305,message,1777626579852,0.037318289279937744,0.051253557205200195,-0.020536355674266815,-0.40613433718681335,0.2994039058685303,-0.5212817192077637
2026-05-01T09:09:40.305000+00:00,1777626580305,S007,12,50,1777626579973,1777626580131,1777626580305,message,1777626579872,0.02805495262145996,0.056108176708221436,-0.02542751282453537,-0.18998073041439056,0.26738759875297546,-0.5002325177192688
2026-05-01T09:09:40.305000+00:00,1777626580305,S007,12,50,1777626579973,1777626580131,1777626580305,message,1777626579892,0.04258584976196289,0.10771536827087402,-0.036638498306274414,0.2508070170879364,0.2027382105588913,-0.4459789991378784
2026-05-01T09:09:40.305000+00:00,1777626580305,S007,12,50,1777626579973,1777626580131,1777626580305,message,1777626579912,0.03360867500305176,0.1058884859085083,-0.028386227786540985,0.3932270109653473,0.1954919695854187,-0.41918158531188965
2026-05-01T09:09:40.305000+00:00,1777626580305,S007,12,50,1777626579973,1777626580131,1777626580305,message,1777626579936,-0.0026246309280395508,0.017546534538269043,-0.014340892434120178,0.2823473811149597,0.20943807065486908,-0.3880254626274109
2026-05-01T09:09:40.305000+00:00,1777626580305,S007,12,50,1777626579973,1777626580131,1777626580305,message,1777626579954,0.025816529989242554,0.01125645637512207,0.02513302117586136,0.18814419209957123,0.1952253133058548,-0.34588390588760376
2026-05-01T09:09:40.305000+00:00,1777626580305,S007,12,50,1777626579973,1777626580131,1777626580305,message,1777626579972,0.021807223558425903,0.01643270254135132,0.013397283852100372,0.05663303658366203,0.19749759137630463,-0.3336656391620636
2026-05-01T09:09:40.382000+00:00,1777626580382,S007,13,50,1777626580173,1777626580250,1777626580382,message,1777626579992,0.025647640228271484,0.0034657716751098633,0.03328967094421387,-0.02522560954093933,0.19698262214660645,-0.35206395387649536
2026-05-01T09:09:40.382000+00:00,1777626580382,S007,13,50,1777626580173,1777626580250,1777626580382,message,1777626580012,0.0184786319732666,-0.06751340627670288,0.016271531581878662,-0.022773638367652893,0.1730676293373108,-0.4082362949848175
2026-05-01T09:09:40.382000+00:00,1777626580382,S007,13,50,1777626580173,1777626580250,1777626580382,message,1777626580032,0.010764926671981812,-0.05049020051956177,-3.546476364135742e-05,-0.11885915696620941,0.13681526482105255,-0.42842739820480347
2026-05-01T09:09:40.382000+00:00,1777626580382,S007,13,50,1777626580173,1777626580250,1777626580382,message,1777626580053,0.019139721989631653,-0.016911447048187256,0.005445852875709534,-0.09512746334075928,0.101458340883255,-0.4481622278690338
2026-05-01T09:09:40.382000+00:00,1777626580382,S007,13,50,1777626580173,1777626580250,1777626580382,message,1777626580072,0.01611393690109253,-0.0364304780960083,-0.014937520027160645,0.05445244163274765,0.08714891225099564,-0.48740828037261963
2026-05-01T09:09:40.382000+00:00,1777626580382,S007,13,50,1777626580173,1777626580250,1777626580382,message,1777626580093,0.016112715005874634,-0.052809834480285645,-0.006899237632751465,0.11243186146020889,0.08273803442716599,-0.4963403344154358
2026-05-01T09:09:40.382000+00:00,1777626580382,S007,13,50,1777626580173,1777626580250,1777626580382,message,1777626580113,0.014834627509117126,0.004082798957824707,0.023473024368286133,0.09127090871334076,0.07377386838197708,-0.4698696732521057
2026-05-01T09:09:40.382000+00:00,1777626580382,S007,13,50,1777626580173,1777626580250,1777626580382,message,1777626580133,0.0024197399616241455,0.005303621292114258,-0.019913986325263977,-0.005770951509475708,0.0863291546702385,-0.4352858066558838
2026-05-01T09:09:40.382000+00:00,1777626580382,S007,13,50,1777626580173,1777626580250,1777626580382,message,1777626580153,0.01527455449104309,0.02922588586807251,-0.028780758380889893,0.0856521725654602,0.10121694952249527,-0.3837265372276306
2026-05-01T09:09:40.382000+00:00,1777626580382,S007,13,50,1777626580173,1777626580250,1777626580382,message,1777626580173,0.03894871473312378,0.055094122886657715,-0.029508285224437714,0.3593233823776245,0.09113867580890656,-0.3310506343841553
2026-05-01T09:09:40.407000+00:00,1777626580407,S007,14,50,1777626580374,1777626580398,1777626580407,message,1777626580193,0.053721219301223755,0.008308589458465576,0.011147856712341309,0.34916236996650696,0.1401216685771942,-0.19509893655776978
2026-05-01T09:09:40.407000+00:00,1777626580407,S007,14,50,1777626580374,1777626580398,1777626580407,message,1777626580213,0.13690640032291412,-0.04716050624847412,0.04062587767839432,0.04776604101061821,0.233423113822937,0.08492313325405121
2026-05-01T09:09:40.407000+00:00,1777626580407,S007,14,50,1777626580374,1777626580398,1777626580407,message,1777626580233,0.043534740805625916,0.2253323793411255,-0.004802696406841278,-0.29247862100601196,0.20339223742485046,0.08249379694461823
2026-05-01T09:09:40.407000+00:00,1777626580407,S007,14,50,1777626580374,1777626580398,1777626580407,message,1777626580253,0.03163035213947296,0.01902550458908081,-0.051625534892082214,-0.2592114806175232,0.18087966740131378,-0.048256438225507736
2026-05-01T09:09:40.407000+00:00,1777626580407,S007,14,50,1777626580374,1777626580398,1777626580407,message,1777626580273,-0.07475544512271881,0.037953853607177734,-0.0373571440577507,-0.2170533686876297,0.14737877249717712,-0.1472107172012329
2026-05-01T09:09:40.407000+00:00,1777626580407,S007,14,50,1777626580374,1777626580398,1777626580407,message,1777626580293,0.047218650579452515,0.06631892919540405,-0.0011001750826835632,0.20013082027435303,0.0648382380604744,-0.24982304871082306
2026-05-01T09:09:40.407000+00:00,1777626580407,S007,14,50,1777626580374,1777626580398,1777626580407,message,1777626580322,0.010105147957801819,0.01848912239074707,0.01892291009426117,0.5906549096107483,0.06857652217149734,-0.2882731258869171
2026-05-01T09:09:40.407000+00:00,1777626580407,S007,14,50,1777626580374,1777626580398,1777626580407,message,1777626580334,0.00037364661693573,0.002293229103088379,0.03264838457107544,0.5624727606773376,0.046853385865688324,-0.25811585783958435
2026-05-01T09:09:40.407000+00:00,1777626580407,S007,14,50,1777626580374,1777626580398,1777626580407,message,1777626580354,-0.028888538479804993,-0.057112932205200195,0.106658935546875,0.30106300115585327,-0.004665733315050602,-0.18545220792293549
2026-05-01T09:09:40.407000+00:00,1777626580407,S007,14,50,1777626580374,1777626580398,1777626580407,message,1777626580374,0.03888951241970062,0.0029967427253723145,0.0013780593872070312,0.08088484406471252,-0.09580089151859283,-0.074586421251297
2026-05-01T09:09:40.694000+00:00,1777626580694,S007,15,50,1777626580575,1777626580695,1777626580694,message,1777626580394,0.0014344602823257446,-0.008207857608795166,-0.0250961035490036,0.1265423595905304,-0.0925133004784584,-0.10859589278697968
2026-05-01T09:09:40.694000+00:00,1777626580694,S007,15,50,1777626580575,1777626580695,1777626580694,message,1777626580414,-0.024982810020446777,0.01894921064376831,-0.035053983330726624,0.2138673961162567,-0.06291629374027252,-0.12583830952644348
2026-05-01T09:09:40.694000+00:00,1777626580694,S007,15,50,1777626580575,1777626580695,1777626580694,message,1777626580434,0.007537290453910828,-0.06579649448394775,0.0004040747880935669,-0.027047744020819664,-0.0288394745439291,-0.10874475538730621
2026-05-01T09:09:40.694000+00:00,1777626580694,S007,15,50,1777626580575,1777626580695,1777626580694,message,1777626580454,0.02095329761505127,-0.040873706340789795,0.024943172931671143,-0.30518293380737305,0.004778862930834293,-0.11080450564622879
2026-05-01T09:09:40.694000+00:00,1777626580694,S007,15,50,1777626580575,1777626580695,1777626580694,message,1777626580475,0.03410381078720093,-0.047545015811920166,0.038792967796325684,-0.5226303339004517,0.03153914585709572,-0.15127666294574738
2026-05-01T09:09:40.694000+00:00,1777626580694,S007,15,50,1777626580575,1777626580695,1777626580694,message,1777626580494,0.03522275388240814,-0.031940460205078125,0.03998703509569168,-0.6101625561714172,0.0372932069003582,-0.20148642361164093
2026-05-01T09:09:40.694000+00:00,1777626580694,S007,15,50,1777626580575,1777626580695,1777626580694,message,1777626580514,0.014322489500045776,0.011829614639282227,0.01803797483444214,-0.5414050817489624,0.02907039225101471,-0.2412547618150711
2026-05-01T09:09:40.694000+00:00,1777626580694,S007,15,50,1777626580575,1777626580695,1777626580694,message,1777626580536,0.015096008777618408,0.034425437450408936,0.017796821892261505,-0.38128626346588135,-0.012642394751310349,-0.27215585112571716
2026-05-01T09:09:40.694000+00:00,1777626580694,S007,15,50,1777626580575,1777626580695,1777626580694,message,1777626580555,0.011100798845291138,0.02974015474319458,0.013995766639709473,-0.25328725576400757,-0.039484165608882904,-0.2633928060531616
2026-05-01T09:09:40.694000+00:00,1777626580694,S007,15,50,1777626580575,1777626580695,1777626580694,message,1777626580575,0.008786603808403015,-0.010959029197692871,0.00437956303358078,-0.2107350081205368,-0.052828241139650345,-0.25824254751205444
2026-05-01T09:09:40.818000+00:00,1777626580818,S007,16,50,1777626580776,1777626580815,1777626580818,message,1777626580595,0.010880708694458008,0.00977855920791626,0.005900442600250244,-0.07426878809928894,-0.019516965374350548,-0.1514378935098648
2026-05-01T09:09:40.818000+00:00,1777626580818,S007,16,50,1777626580776,1777626580815,1777626580818,message,1777626580615,0.1267014890909195,0.1151118278503418,-0.0715511366724968,0.43008118867874146,0.053424470126628876,0.1997314840555191
2026-05-01T09:09:40.818000+00:00,1777626580818,S007,16,50,1777626580776,1777626580815,1777626580818,message,1777626580637,0.15029677748680115,0.031480371952056885,-0.05493265390396118,0.8613476157188416,0.1213625818490982,0.5663115978240967
2026-05-01T09:09:40.818000+00:00,1777626580818,S007,16,50,1777626580776,1777626580815,1777626580818,message,1777626580655,0.09915071725845337,-0.012417733669281006,-0.043635427951812744,1.066802978515625,0.182541161775589,0.6251652240753174
2026-05-01T09:09:40.818000+00:00,1777626580818,S007,16,50,1777626580776,1777626580815,1777626580818,message,1777626580675,0.04388737678527832,-0.0036676526069641113,-0.009122312068939209,1.1560471057891846,0.16911780834197998,0.5207141041755676
2026-05-01T09:09:40.818000+00:00,1777626580818,S007,16,50,1777626580776,1777626580815,1777626580818,message,1777626580695,0.001773148775100708,0.03715330362319946,0.025076985359191895,1.2777376174926758,0.10940239578485489,0.36989840865135193
2026-05-01T09:09:40.818000+00:00,1777626580818,S007,16,50,1777626580776,1777626580815,1777626580818,message,1777626580716,-0.017422929406166077,-0.0013415813446044922,-0.0014661699533462524,1.1263633966445923,0.03672393411397934,0.219706192612648
2026-05-01T09:09:40.818000+00:00,1777626580818,S007,16,50,1777626580776,1777626580815,1777626580818,message,1777626580736,-0.03932987153530121,-0.027112126350402832,-0.0034511536359786987,0.9199739098548889,-0.030523886904120445,0.0510658361017704
2026-05-01T09:09:40.818000+00:00,1777626580818,S007,16,50,1777626580776,1777626580815,1777626580818,message,1777626580756,-0.03348879516124725,0.018870651721954346,0.012742474675178528,1.0068782567977905,-0.13209384679794312,-0.05092620104551315
2026-05-01T09:09:40.818000+00:00,1777626580818,S007,16,50,1777626580776,1777626580815,1777626580818,message,1777626580776,-0.026130661368370056,0.031320393085479736,0.050376370549201965,1.222719669342041,-0.13404053449630737,-0.04277415946125984
2026-05-01T09:09:41.031000+00:00,1777626581031,S007,17,50,1777626580977,1777626581030,1777626581031,message,1777626580796,0.01070326566696167,0.04645043611526489,0.07347196340560913,1.0070995092391968,-0.2539016604423523,-0.08543906360864639
2026-05-01T09:09:41.031000+00:00,1777626581031,S007,17,50,1777626580977,1777626581030,1777626581031,message,1777626580816,-0.09287597239017487,-0.051805078983306885,0.03646039962768555,0.6349844932556152,-0.23495717346668243,-0.07035768777132034
2026-05-01T09:09:41.031000+00:00,1777626581031,S007,17,50,1777626580977,1777626581030,1777626581031,message,1777626580837,-0.06614786386489868,-0.07879990339279175,0.022854775190353394,-0.025441857054829597,-0.22397762537002563,-0.07576700299978256
2026-05-01T09:09:41.031000+00:00,1777626581031,S007,17,50,1777626580977,1777626581030,1777626581031,message,1777626580856,-0.06752656400203705,0.0030410289764404297,0.0459902286529541,-0.5087350010871887,-0.3167245388031006,-0.13225755095481873
2026-05-01T09:09:41.031000+00:00,1777626581031,S007,17,50,1777626580977,1777626581030,1777626581031,message,1777626580876,-0.056898877024650574,-0.03225773572921753,0.02660509943962097,-0.5801905393600464,-0.2540318965911865,-0.05346648395061493
2026-05-01T09:09:41.031000+00:00,1777626581031,S007,17,50,1777626580977,1777626581030,1777626581031,message,1777626580896,-0.04000028967857361,0.0033576488494873047,-0.05157354474067688,0.4343278706073761,-0.047000519931316376,-0.12223878502845764
2026-05-01T09:09:41.031000+00:00,1777626581031,S007,17,50,1777626580977,1777626581030,1777626581031,message,1777626580916,0.0007937103509902954,0.08173280954360962,-0.043767690658569336,0.5425779223442078,-0.12082479149103165,-0.06667688488960266
2026-05-01T09:09:41.031000+00:00,1777626581031,S007,17,50,1777626580977,1777626581030,1777626581031,message,1777626580939,-0.024642720818519592,-0.030955791473388672,0.01232251524925232,0.5742200016975403,-0.19841605424880981,-0.08967716246843338
2026-05-01T09:09:41.031000+00:00,1777626581031,S007,17,50,1777626580977,1777626581030,1777626581031,message,1777626580957,-0.05676692724227905,0.007809817790985107,0.06445026397705078,0.8597782254219055,-0.27242302894592285,-0.15121105313301086
2026-05-01T09:09:41.031000+00:00,1777626581031,S007,17,50,1777626580977,1777626581030,1777626581031,message,1777626580977,-0.019904807209968567,-0.01764392852783203,0.05969125032424927,0.583808183670044,-0.24006584286689758,-0.15531934797763824
2026-05-01T09:09:41.284000+00:00,1777626581284,S007,18,50,1777626581178,1777626581279,1777626581284,message,1777626580997,-0.029348433017730713,-0.076388418674469,0.03231644630432129,-0.07301496714353561,-0.20181840658187866,-0.2364095151424408
2026-05-01T09:09:41.284000+00:00,1777626581284,S007,18,50,1777626581178,1777626581279,1777626581284,message,1777626581017,-0.0342867374420166,-0.061483919620513916,-0.03170442581176758,-0.26436468958854675,-0.2174978107213974,-0.28122076392173767
2026-05-01T09:09:41.284000+00:00,1777626581284,S007,18,50,1777626581178,1777626581279,1777626581284,message,1777626581037,0.021316662430763245,-0.008407831192016602,-0.030421137809753418,0.05051442235708237,-0.2210690975189209,-0.24914437532424927
2026-05-01T09:09:41.284000+00:00,1777626581284,S007,18,50,1777626581178,1777626581279,1777626581284,message,1777626581057,0.028351813554763794,0.012263655662536621,0.026593565940856934,0.08843810856342316,-0.1985849142074585,-0.21442633867263794
2026-05-01T09:09:41.284000+00:00,1777626581284,S007,18,50,1777626581178,1777626581279,1777626581284,message,1777626581077,0.040890686213970184,0.09252798557281494,-0.01712384819984436,0.15978577733039856,-0.13751380145549774,-0.15830688178539276
2026-05-01T09:09:41.284000+00:00,1777626581284,S007,18,50,1777626581178,1777626581279,1777626581284,message,1777626581097,0.042296260595321655,0.05153477191925049,0.00140342116355896,0.22893954813480377,-0.11770816892385483,-0.13169316947460175
2026-05-01T09:09:41.284000+00:00,1777626581284,S007,18,50,1777626581178,1777626581279,1777626581284,message,1777626581117,0.027401603758335114,-0.008373260498046875,0.008123636245727539,0.11097856611013412,-0.07122322171926498,-0.06866210699081421
2026-05-01T09:09:41.284000+00:00,1777626581284,S007,18,50,1777626581178,1777626581279,1777626581284,message,1777626581138,0.008353598415851593,0.00973600149154663,0.030884385108947754,-0.04747578501701355,-0.04320882633328438,-0.03995984047651291
2026-05-01T09:09:41.284000+00:00,1777626581284,S007,18,50,1777626581178,1777626581279,1777626581284,message,1777626581158,-0.0018243417143821716,0.03502082824707031,0.01741427183151245,-0.04072786867618561,-0.04846587032079697,-0.010888452641665936
2026-05-01T09:09:41.284000+00:00,1777626581284,S007,18,50,1777626581178,1777626581279,1777626581284,message,1777626581178,0.006650976836681366,0.007254600524902344,0.03661823272705078,0.028652537614107132,-0.07374581694602966,0.00972201768308878
2026-05-01T09:09:41.457000+00:00,1777626581457,S007,19,50,1777626581379,1777626581445,1777626581457,message,1777626581198,-0.007198207080364227,0.034072697162628174,0.04861852526664734,-0.014299724251031876,-0.06141206622123718,0.030254457145929337
2026-05-01T09:09:41.457000+00:00,1777626581457,S007,19,50,1777626581379,1777626581445,1777626581457,message,1777626581218,-0.033891648054122925,0.010446488857269287,0.00849759578704834,-0.05977106839418411,-0.0015764664858579636,0.05850281938910484
2026-05-01T09:09:41.457000+00:00,1777626581457,S007,19,50,1777626581379,1777626581445,1777626581457,message,1777626581238,-0.03769522160291672,0.006002068519592285,-0.011756062507629395,-0.015132228843867779,0.05078839510679245,0.08217864483594894
2026-05-01T09:09:41.457000+00:00,1777626581457,S007,19,50,1777626581379,1777626581445,1777626581457,message,1777626581258,-0.057289451360702515,0.017769813537597656,-0.018513202667236328,-0.017123475670814514,0.14666424691677094,0.09770039469003677
2026-05-01T09:09:41.457000+00:00,1777626581457,S007,19,50,1777626581379,1777626581445,1777626581457,message,1777626581278,-0.05059283226728439,0.015175819396972656,0.017866671085357666,-0.11405108869075775,0.20363642275333405,0.12207098305225372
2026-05-01T09:09:41.457000+00:00,1777626581457,S007,19,50,1777626581379,1777626581445,1777626581457,message,1777626581298,-0.045136958360672,0.029362499713897705,0.03986334800720215,-0.17552217841148376,0.16049601137638092,0.11694157868623734
2026-05-01T09:09:41.457000+00:00,1777626581457,S007,19,50,1777626581379,1777626581445,1777626581457,message,1777626581318,-0.0008808225393295288,-0.0024802684783935547,0.05145263671875,-0.2382151037454605,0.03608139231801033,0.09248299151659012
2026-05-01T09:09:41.457000+00:00,1777626581457,S007,19,50,1777626581379,1777626581445,1777626581457,message,1777626581338,0.04333701729774475,-0.014879465103149414,0.062119096517562866,-0.12611307203769684,-0.16022968292236328,0.054544828832149506
2026-05-01T09:09:41.457000+00:00,1777626581457,S007,19,50,1777626581379,1777626581445,1777626581457,message,1777626581358,0.07210791110992432,0.008949577808380127,0.08125448226928711,0.06748435646295547,-0.29658639430999756,0.06152459979057312
2026-05-01T09:09:41.457000+00:00,1777626581457,S007,19,50,1777626581379,1777626581445,1777626581457,message,1777626581379,0.0483170747756958,-0.0023893117904663086,0.1177293062210083,0.16242018342018127,-0.33720195293426514,0.09174375236034393
2026-05-01T09:09:41.686000+00:00,1777626581686,S007,20,50,1777626581580,1777626581662,1777626581686,message,1777626581399,0.0750126838684082,-0.01677727699279785,0.04940614104270935,0.22251467406749725,-0.34178033471107483,0.08322633057832718
2026-05-01T09:09:41.686000+00:00,1777626581686,S007,20,50,1777626581580,1777626581662,1777626581686,message,1777626581419,0.08458994328975677,-0.07126706838607788,-0.009418129920959473,0.3990875780582428,-0.2847949266433716,0.0957619845867157
2026-05-01T09:09:41.686000+00:00,1777626581686,S007,20,50,1777626581580,1777626581662,1777626581686,message,1777626581440,0.06291450560092926,-0.02005302906036377,-0.06926921010017395,0.5262194275856018,-0.17932377755641937,0.11758062988519669
2026-05-01T09:09:41.686000+00:00,1777626581686,S007,20,50,1777626581580,1777626581662,1777626581686,message,1777626581459,0.07256132364273071,-0.01857125759124756,-0.05153036117553711,0.6193576455116272,-0.08287421613931656,0.12426968663930893
2026-05-01T09:09:41.686000+00:00,1777626581686,S007,20,50,1777626581580,1777626581662,1777626581686,message,1777626581482,0.0542415976524353,-0.040833890438079834,-0.016581058502197266,0.8214036822319031,-0.004498030059039593,0.0960589274764061
2026-05-01T09:09:41.686000+00:00,1777626581686,S007,20,50,1777626581580,1777626581662,1777626581686,message,1777626581499,0.008430778980255127,-0.057137131690979004,-0.05422699451446533,0.7853564620018005,0.0663893073797226,0.039714112877845764
2026-05-01T09:09:41.686000+00:00,1777626581686,S007,20,50,1777626581580,1777626581662,1777626581686,message,1777626581519,-0.013130798935890198,-0.05633413791656494,-0.008706152439117432,0.3697699010372162,0.12062156945466995,0.019932150840759277
2026-05-01T09:09:41.686000+00:00,1777626581686,S007,20,50,1777626581580,1777626581662,1777626581686,message,1777626581540,-0.029140740633010864,-0.048859357833862305,0.0005931854248046875,0.10981636494398117,0.0989382341504097,-0.007557317148894072
2026-05-01T09:09:41.686000+00:00,1777626581686,S007,20,50,1777626581580,1777626581662,1777626581686,message,1777626581559,-0.026028677821159363,0.008077561855316162,-0.007374882698059082,0.10006760060787201,0.06590305268764496,0.06659829616546631
2026-05-01T09:09:41.686000+00:00,1777626581686,S007,20,50,1777626581580,1777626581662,1777626581686,message,1777626581579,-0.026505306363105774,0.1458243727684021,0.005592912435531616,0.39392903447151184,0.036572057753801346,0.10671178251504898
2026-05-01T09:09:41.849000+00:00,1777626581849,S007,21,50,1777626581781,1777626581831,1777626581849,message,1777626581600,-0.02723836898803711,0.14337050914764404,-0.04039931297302246,0.6177842617034912,0.03651111200451851,0.14376765489578247
2026-05-01T09:09:41.849000+00:00,1777626581849,S007,21,50,1777626581781,1777626581831,1777626581849,message,1777626581620,-0.029862478375434875,0.06763070821762085,-0.02061706781387329,0.635955274105072,0.027792150154709816,0.1653842031955719
2026-05-01T09:09:41.849000+00:00,1777626581849,S007,21,50,1777626581781,1777626581831,1777626581849,message,1777626581640,0.0008547306060791016,0.013992130756378174,0.0007124543190002441,0.5107459425926208,-0.029085703194141388,0.1535976380109787
2026-05-01T09:09:41.849000+00:00,1777626581849,S007,21,50,1777626581781,1777626581831,1777626581849,message,1777626581660,0.02504989504814148,-0.05961179733276367,0.024174362421035767,0.22113090753555298,-0.06971260160207748,0.11639434844255447
2026-05-01T09:09:41.849000+00:00,1777626581849,S007,21,50,1777626581781,1777626581831,1777626581849,message,1777626581680,0.02622908353805542,-0.08845138549804688,0.02910730242729187,-0.039505742490291595,-0.1370479017496109,0.025778427720069885
2026-05-01T09:09:41.849000+00:00,1777626581849,S007,21,50,1777626581781,1777626581831,1777626581849,message,1777626581700,0.042456939816474915,-0.08990967273712158,0.01064985990524292,0.09119661152362823,-0.21103805303573608,-0.06844032555818558
2026-05-01T09:09:41.849000+00:00,1777626581849,S007,21,50,1777626581781,1777626581831,1777626581849,message,1777626581722,0.053208425641059875,-0.04348313808441162,-0.0036029815673828125,0.4961896538734436,-0.28532540798187256,-0.19233819842338562
2026-05-01T09:09:41.849000+00:00,1777626581849,S007,21,50,1777626581781,1777626581831,1777626581849,message,1777626581740,0.034918636083602905,-0.15521878004074097,0.027602076530456543,0.5501338243484497,-0.38175058364868164,-0.23919646441936493
2026-05-01T09:09:41.849000+00:00,1777626581849,S007,21,50,1777626581781,1777626581831,1777626581849,message,1777626581760,0.018466025590896606,-0.02807748317718506,0.10664176940917969,0.6123775243759155,-0.3918111026287079,-0.2599583566188812
2026-05-01T09:09:41.849000+00:00,1777626581849,S007,21,50,1777626581781,1777626581831,1777626581849,message,1777626581781,0.0026501640677452087,-0.019559741020202637,0.05243957042694092,0.2725672125816345,-0.30866575241088867,-0.2395937442779541
2026-05-01T09:09:42.021000+00:00,1777626582021,S007,22,50,1777626581982,1777626582022,1777626582021,message,1777626581800,-0.03715059161186218,-0.004418492317199707,-0.04135507345199585,0.11531020700931549,-0.1995461881160736,-0.21979963779449463
2026-05-01T09:09:42.021000+00:00,1777626582021,S007,22,50,1777626581982,1777626582022,1777626582021,message,1777626581821,0.014160357415676117,0.018666863441467285,0.002148926258087158,0.25399431586265564,-0.18701773881912231,-0.16050170361995697
2026-05-01T09:09:42.021000+00:00,1777626582021,S007,22,50,1777626581982,1777626582022,1777626582021,message,1777626581841,0.023322932422161102,0.1450124979019165,-0.00509980320930481,0.7867007851600647,-0.18694666028022766,-0.1195870190858841
2026-05-01T09:09:42.021000+00:00,1777626582021,S007,22,50,1777626581982,1777626582022,1777626582021,message,1777626581861,0.024061881005764008,0.09085482358932495,-0.027067065238952637,0.9974585771560669,-0.2328224629163742,-0.06514700502157211
2026-05-01T09:09:42.021000+00:00,1777626582021,S007,22,50,1777626581982,1777626582022,1777626582021,message,1777626581882,0.019675031304359436,0.048857033252716064,0.02264004945755005,0.8786493539810181,-0.27462223172187805,-0.020824972540140152
2026-05-01T09:09:42.021000+00:00,1777626582021,S007,22,50,1777626581982,1777626582022,1777626582021,message,1777626581901,0.021160393953323364,0.008903205394744873,0.026146113872528076,0.815957248210907,-0.29890796542167664,-0.022808972746133804
2026-05-01T09:09:42.021000+00:00,1777626582021,S007,22,50,1777626581982,1777626582022,1777626582021,message,1777626581922,0.018125638365745544,0.02170628309249878,0.004046201705932617,0.6638486981391907,-0.27988749742507935,-0.04562464728951454
2026-05-01T09:09:42.021000+00:00,1777626582021,S007,22,50,1777626581982,1777626582022,1777626582021,message,1777626581941,-0.00996621698141098,-0.049125611782073975,0.009298324584960938,0.1940383017063141,-0.19511725008487701,-0.04487358406186104
2026-05-01T09:09:42.021000+00:00,1777626582021,S007,22,50,1777626581982,1777626582022,1777626582021,message,1777626581961,-0.02735743671655655,-0.05292367935180664,-0.06867295503616333,-0.09179851412773132,-0.10592969506978989,-0.044123902916908264
2026-05-01T09:09:42.021000+00:00,1777626582021,S007,22,50,1777626581982,1777626582022,1777626582021,message,1777626581982,-0.03664940595626831,-0.03245270252227783,-0.05496072769165039,-0.18209432065486908,-0.047814611345529556,-0.054329562932252884
2026-05-01T09:09:42.316000+00:00,1777626582316,S007,23,50,1777626582183,1777626582315,1777626582316,message,1777626582002,-0.0044191256165504456,-0.004008471965789795,-0.011546730995178223,-0.15376201272010803,-0.04117455333471298,-0.05776152387261391
2026-05-01T09:09:42.316000+00:00,1777626582316,S007,23,50,1777626582183,1777626582315,1777626582316,message,1777626582024,0.017517969012260437,-0.01066654920578003,0.0028876066207885742,-0.1188245341181755,-0.05960952490568161,-0.04535726457834244
2026-05-01T09:09:42.316000+00:00,1777626582316,S007,23,50,1777626582183,1777626582315,1777626582316,message,1777626582042,0.01812206208705902,-0.011601448059082031,-0.015227913856506348,-0.09260198473930359,-0.05947567895054817,-0.03979957103729248
2026-05-01T09:09:42.316000+00:00,1777626582316,S007,23,50,1777626582183,1777626582315,1777626582316,message,1777626582062,0.005856476724147797,-0.018970012664794922,-0.023140549659729004,-0.09443796426057816,-0.05736337602138519,-0.0397162102162838
2026-05-01T09:09:42.316000+00:00,1777626582316,S007,23,50,1777626582183,1777626582315,1777626582316,message,1777626582082,-0.0003273710608482361,-0.01586627960205078,-0.012868762016296387,-0.09576688706874847,-0.06796158105134964,-0.027899393811821938
2026-05-01T09:09:42.316000+00:00,1777626582316,S007,23,50,1777626582183,1777626582315,1777626582316,message,1777626582102,0.0007350817322731018,0.038995981216430664,-0.00017642974853515625,0.16410677134990692,-0.03658607602119446,-0.03030097857117653
2026-05-01T09:09:42.316000+00:00,1777626582316,S007,23,50,1777626582183,1777626582315,1777626582316,message,1777626582122,0.04373803734779358,0.10100466012954712,0.046819210052490234,0.5878862738609314,-0.16344396770000458,0.001356709050014615
2026-05-01T09:09:42.316000+00:00,1777626582316,S007,23,50,1777626582183,1777626582315,1777626582316,message,1777626582142,0.0297231525182724,0.05930453538894653,0.04605984687805176,0.8279057741165161,-0.22655034065246582,0.024766746908426285
2026-05-01T09:09:42.316000+00:00,1777626582316,S007,23,50,1777626582183,1777626582315,1777626582316,message,1777626582162,-0.004577033221721649,0.03527390956878662,0.03406184911727905,0.8966904282569885,-0.21316362917423248,0.004877194762229919
2026-05-01T09:09:42.316000+00:00,1777626582316,S007,23,50,1777626582183,1777626582315,1777626582316,message,1777626582182,-0.0031489580869674683,-6.651878356933594e-05,0.035617828369140625,0.7728931307792664,-0.16992172598838806,0.014221427962183952
2026-05-01T09:09:42.458000+00:00,1777626582458,S007,24,50,1777626582383,1777626582455,1777626582458,message,1777626582202,0.00784660130739212,-0.023782789707183838,0.011961281299591064,0.4191880524158478,-0.13066744804382324,0.01595328189432621
2026-05-01T09:09:42.458000+00:00,1777626582458,S007,24,50,1777626582383,1777626582455,1777626582458,message,1777626582224,0.002291165292263031,-0.031206190586090088,-0.002834618091583252,0.4023531675338745,-0.11006870120763779,0.006610646843910217
2026-05-01T09:09:42.458000+00:00,1777626582458,S007,24,50,1777626582383,1777626582455,1777626582458,message,1777626582243,-0.020440686494112015,-0.037314772605895996,-0.024408996105194092,0.3555976450443268,-0.06887199729681015,-0.02249770425260067
2026-05-01T09:09:42.458000+00:00,1777626582458,S007,24,50,1777626582383,1777626582455,1777626582458,message,1777626582262,-0.034606315195560455,-0.0505521297454834,-0.0027877092361450195,0.276203453540802,-0.019648943096399307,-0.07243708521127701
2026-05-01T09:09:42.458000+00:00,1777626582458,S007,24,50,1777626582383,1777626582455,1777626582458,message,1777626582283,-0.0005619227886199951,0.0036810636520385742,0.012290477752685547,0.28921329975128174,-0.05736664682626724,-0.0678197517991066
2026-05-01T09:09:42.458000+00:00,1777626582458,S007,24,50,1777626582383,1777626582455,1777626582458,message,1777626582303,0.04161218926310539,0.11702334880828857,-0.005625665187835693,0.5907102823257446,-0.14099964499473572,-0.03695131838321686
2026-05-01T09:09:42.458000+00:00,1777626582458,S007,24,50,1777626582383,1777626582455,1777626582458,message,1777626582323,0.03374357521533966,0.01010119915008545,0.0032989978790283203,0.47809210419654846,-0.19222179055213928,-0.029320135712623596
2026-05-01T09:09:42.458000+00:00,1777626582458,S007,24,50,1777626582383,1777626582455,1777626582458,message,1777626582343,0.0030767321586608887,-0.03778177499771118,-0.04742228984832764,0.21368789672851562,-0.1550227850675583,-0.06571904569864273
2026-05-01T09:09:42.458000+00:00,1777626582458,S007,24,50,1777626582383,1777626582455,1777626582458,message,1777626582363,-0.009636394679546356,-0.07243448495864868,-0.047245144844055176,-0.15413086116313934,-0.10249855369329453,-0.10090585052967072
2026-05-01T09:09:42.458000+00:00,1777626582458,S007,24,50,1777626582383,1777626582455,1777626582458,message,1777626582383,-8.88332724571228e-05,-0.047727763652801514,-0.019825458526611328,-0.32315343618392944,-0.1374380886554718,-0.09542075544595718
2026-05-01T09:09:42.746000+00:00,1777626582746,S007,25,50,1777626582584,1777626582743,1777626582746,message,1777626582403,0.013694621622562408,0.05341368913650513,0.046033620834350586,-0.42412427067756653,-0.246975839138031,-0.0714300349354744
2026-05-01T09:09:42.746000+00:00,1777626582746,S007,25,50,1777626582584,1777626582743,1777626582746,message,1777626582423,0.025253619998693466,-0.07956814765930176,0.07457655668258667,-1.0941540002822876,-0.3563542366027832,-0.01754571683704853
2026-05-01T09:09:42.746000+00:00,1777626582746,S007,25,50,1777626582584,1777626582743,1777626582746,message,1777626582443,-0.05677415430545807,-0.10633242130279541,-0.032824039459228516,-1.7349966764450073,-0.26973387598991394,-0.015855034813284874
2026-05-01T09:09:42.746000+00:00,1777626582746,S007,25,50,1777626582584,1777626582743,1777626582746,message,1777626582463,-0.12414823472499847,-0.10474997758865356,-0.0591886043548584,-2.128486156463623,-0.05031551048159599,-0.05575808137655258
2026-05-01T09:09:42.746000+00:00,1777626582746,S007,25,50,1777626582584,1777626582743,1777626582746,message,1777626582484,-0.10553734004497528,-0.07585901021957397,-0.06341129541397095,-2.627291679382324,0.29789501428604126,-0.022547343745827675
2026-05-01T09:09:42.746000+00:00,1777626582746,S007,25,50,1777626582584,1777626582743,1777626582746,message,1777626582504,-0.10213236510753632,-0.09075117111206055,-0.07306286692619324,-2.9258956909179688,0.5407819747924805,-0.09877090156078339
2026-05-01T09:09:42.746000+00:00,1777626582746,S007,25,50,1777626582584,1777626582743,1777626582746,message,1777626582524,-0.046937089413404465,0.05764293670654297,-0.0676012635231018,-2.102360725402832,0.5887534022331238,-0.119936004281044
2026-05-01T09:09:42.746000+00:00,1777626582746,S007,25,50,1777626582584,1777626582743,1777626582746,message,1777626582544,-0.00012050196528434753,0.19674354791641235,-0.14651286602020264,-0.3279460370540619,0.48178526759147644,-0.09586955606937408
2026-05-01T09:09:42.746000+00:00,1777626582746,S007,25,50,1777626582584,1777626582743,1777626582746,message,1777626582564,0.03221450373530388,0.1408175826072693,-0.007684767246246338,0.6190993189811707,0.39346233010292053,-0.0726577565073967
2026-05-01T09:09:42.746000+00:00,1777626582746,S007,25,50,1777626582584,1777626582743,1777626582746,message,1777626582584,0.04006601497530937,-0.0014365911483764648,0.06002339720726013,0.5587587356567383,0.3410521447658539,-0.06327996402978897
2026-05-01T09:09:42.810000+00:00,1777626582810,S007,26,50,1777626582785,1777626582813,1777626582810,message,1777626582604,0.1057729721069336,-0.04561293125152588,0.19333526492118835,0.29133155941963196,0.25866618752479553,-0.00901651568710804
2026-05-01T09:09:42.810000+00:00,1777626582810,S007,26,50,1777626582785,1777626582813,1777626582810,message,1777626582624,0.09261184185743332,0.058844923973083496,0.09251093864440918,0.2893427014350891,0.2401021271944046,0.039548516273498535
2026-05-01T09:09:42.810000+00:00,1777626582810,S007,26,50,1777626582785,1777626582813,1777626582810,message,1777626582644,0.062434639781713486,0.031241536140441895,0.053224414587020874,0.3275795578956604,0.18400420248508453,0.060506422072649
2026-05-01T09:09:42.810000+00:00,1777626582810,S007,26,50,1777626582785,1777626582813,1777626582810,message,1777626582665,0.08630450069904327,-0.013347744941711426,0.1107112467288971,0.4262845814228058,0.07702452689409256,0.05596381425857544
2026-05-01T09:09:42.810000+00:00,1777626582810,S007,26,50,1777626582785,1777626582813,1777626582810,message,1777626582685,0.09391534328460693,-0.013327300548553467,0.07038292288780212,0.6132283806800842,-0.020761383697390556,0.0416119322180748
2026-05-01T09:09:42.810000+00:00,1777626582810,S007,26,50,1777626582785,1777626582813,1777626582810,message,1777626582705,0.08128237724304199,-0.0257834792137146,0.05219000577926636,0.5137696862220764,-0.07769600301980972,0.033597949892282486
2026-05-01T09:09:42.810000+00:00,1777626582810,S007,26,50,1777626582785,1777626582813,1777626582810,message,1777626582725,0.06889544427394867,-0.05301791429519653,0.07747063040733337,0.19565829634666443,-0.1342548429965973,0.03204335644841194
2026-05-01T09:09:42.810000+00:00,1777626582810,S007,26,50,1777626582785,1777626582813,1777626582810,message,1777626582745,0.024624750018119812,-0.012023627758026123,0.019703149795532227,0.13301116228103638,-0.117152139544487,0.03271250054240227
2026-05-01T09:09:42.810000+00:00,1777626582810,S007,26,50,1777626582785,1777626582813,1777626582810,message,1777626582765,-0.0036378875374794006,0.0393831729888916,-0.034226030111312866,0.2603243887424469,-0.1128266379237175,0.04324397072196007
2026-05-01T09:09:42.810000+00:00,1777626582810,S007,26,50,1777626582785,1777626582813,1777626582810,message,1777626582785,-0.018829789012670517,0.050946593284606934,-0.0634036660194397,0.32248255610466003,-0.10328319668769836,0.029798736795783043
2026-05-01T09:09:43.004000+00:00,1777626583004,S007,27,50,1777626582987,1777626582992,1777626583004,message,1777626582805,-0.022136323153972626,-0.03556406497955322,-0.03685706853866577,0.2834264934062958,-0.11822060495615005,-0.0016079217894002795
2026-05-01T09:09:43.004000+00:00,1777626583004,S007,27,50,1777626582987,1777626582992,1777626583004,message,1777626582825,-0.02889326587319374,0.01814347505569458,-0.05681121349334717,0.39747557044029236,-0.13987746834754944,-0.0019848656374961138
2026-05-01T09:09:43.004000+00:00,1777626583004,S007,27,50,1777626582987,1777626582992,1777626583004,message,1777626582845,-0.0070971958339214325,0.017247378826141357,-0.03922474384307861,0.45287439227104187,-0.20490068197250366,-0.013035119511187077
2026-05-01T09:09:43.004000+00:00,1777626583004,S007,27,50,1777626582987,1777626582992,1777626583004,message,1777626582865,0.005423244088888168,-0.002215564250946045,0.01667928695678711,0.46143272519111633,-0.25492021441459656,-0.01400243304669857
2026-05-01T09:09:43.004000+00:00,1777626583004,S007,27,50,1777626582987,1777626582992,1777626583004,message,1777626582885,-0.012388404458761215,0.022882401943206787,-0.030273795127868652,0.3302914798259735,-0.2477099597454071,-0.002977212890982628
2026-05-01T09:09:43.004000+00:00,1777626583004,S007,27,50,1777626582987,1777626582992,1777626583004,message,1777626582907,0.0009685605764389038,-0.014737367630004883,0.018710792064666748,0.18524028360843658,-0.23716510832309723,0.018085142597556114
2026-05-01T09:09:43.004000+00:00,1777626583004,S007,27,50,1777626582987,1777626582992,1777626583004,message,1777626582926,0.019440840929746628,0.011471092700958252,0.010019898414611816,0.30621328949928284,-0.24288293719291687,0.01006481982767582
2026-05-01T09:09:43.004000+00:00,1777626583004,S007,27,50,1777626582987,1777626582992,1777626583004,message,1777626582946,0.012595005333423615,0.003717184066772461,0.026224195957183838,0.3644323945045471,-0.23985515534877777,-0.004774953238666058
2026-05-01T09:09:43.004000+00:00,1777626583004,S007,27,50,1777626582987,1777626582992,1777626583004,message,1777626582966,-0.005162201821804047,-0.0011357665061950684,0.020226776599884033,0.4634314179420471,-0.21271879971027374,-0.023770002648234367
2026-05-01T09:09:43.004000+00:00,1777626583004,S007,27,50,1777626582987,1777626582992,1777626583004,message,1777626582986,-0.0005807206034660339,0.0189894437789917,-0.0012763142585754395,0.5157225728034973,-0.18606242537498474,-0.012093426659703255
2026-05-01T09:09:43.347000+00:00,1777626583347,S007,28,50,1777626583187,1777626583330,1777626583347,message,1777626583011,0.0029847845435142517,-0.020913004875183105,0.010910511016845703,0.42548322677612305,-0.17972728610038757,0.004182003438472748
2026-05-01T09:09:43.347000+00:00,1777626583347,S007,28,50,1777626583187,1777626583330,1777626583347,message,1777626583026,0.01212155632674694,-0.015086054801940918,0.022048532962799072,0.2917709946632385,-0.17855896055698395,0.004729016683995724
2026-05-01T09:09:43.347000+00:00,1777626583347,S007,28,50,1777626583187,1777626583330,1777626583347,message,1777626583046,-0.02003800868988037,-0.05912655591964722,-0.0037442445755004883,0.09203736484050751,-0.12642401456832886,-0.013923177495598793
2026-05-01T09:09:43.347000+00:00,1777626583347,S007,28,50,1777626583187,1777626583330,1777626583347,message,1777626583066,-0.02601046860218048,-0.009215295314788818,0.03675520420074463,-0.015153534710407257,-0.09464146941900253,-0.05228942260146141
2026-05-01T09:09:43.347000+00:00,1777626583347,S007,28,50,1777626583187,1777626583330,1777626583347,message,1777626583087,-0.02031140774488449,0.02431255578994751,0.002159595489501953,0.11962052434682846,-0.13495293259620667,-0.05289454385638237
2026-05-01T09:09:43.347000+00:00,1777626583347,S007,28,50,1777626583187,1777626583330,1777626583347,message,1777626583108,0.013296512886881828,0.047901809215545654,-0.0020074844360351562,0.20789393782615662,-0.19591806828975677,-0.054306767880916595
2026-05-01T09:09:43.347000+00:00,1777626583347,S007,28,50,1777626583187,1777626583330,1777626583347,message,1777626583127,0.0037380876019597054,0.010800600051879883,-0.01823025941848755,0.2232086956501007,-0.19319182634353638,-0.06254291534423828
2026-05-01T09:09:43.347000+00:00,1777626583347,S007,28,50,1777626583187,1777626583330,1777626583347,message,1777626583147,0.01810012385249138,0.004912197589874268,-0.008809506893157959,0.32140052318573,-0.15542051196098328,-0.06549662351608276
2026-05-01T09:09:43.347000+00:00,1777626583347,S007,28,50,1777626583187,1777626583330,1777626583347,message,1777626583167,0.047699883580207825,0.063404381275177,0.005861103534698486,0.41575151681900024,-0.15518911182880402,-0.04369929060339928
2026-05-01T09:09:43.347000+00:00,1777626583347,S007,28,50,1777626583187,1777626583330,1777626583347,message,1777626583187,0.03798030689358711,-0.015518903732299805,0.021990716457366943,0.17483477294445038,-0.13618510961532593,-0.030197327956557274
2026-05-01T09:09:43.437000+00:00,1777626583437,S007,29,50,1777626583388,1777626583439,1777626583437,message,1777626583208,-0.011372261680662632,-0.05224329233169556,-0.02600395679473877,-0.44776782393455505,-0.05982249975204468,-0.02208896167576313
2026-05-01T09:09:43.437000+00:00,1777626583437,S007,29,50,1777626583388,1777626583439,1777626583437,message,1777626583227,-0.05031346157193184,-0.17155951261520386,-0.05412578582763672,-1.2821599245071411,0.10181532055139542,-0.03844460844993591
2026-05-01T09:09:43.437000+00:00,1777626583437,S007,29,50,1777626583388,1777626583439,1777626583437,message,1777626583247,-0.061170488595962524,-0.16401344537734985,-0.024132132530212402,-2.0820555686950684,0.2848227322101593,-0.004971014801412821
2026-05-01T09:09:43.437000+00:00,1777626583437,S007,29,50,1777626583388,1777626583439,1777626583437,message,1777626583267,-0.09833578765392303,-0.06054443120956421,-0.10404115915298462,-2.5833585262298584,0.6053084135055542,0.02718639001250267
2026-05-01T09:09:43.437000+00:00,1777626583437,S007,29,50,1777626583388,1777626583439,1777626583437,message,1777626583288,-0.08449579030275345,-0.11131018400192261,-0.03350132703781128,-3.00485897064209,0.8136489987373352,0.07750889658927917
2026-05-01T09:09:43.437000+00:00,1777626583437,S007,29,50,1777626583388,1777626583439,1777626583437,message,1777626583308,-0.028165651485323906,-0.002104520797729492,0.10168665647506714,-2.565857172012329,0.7321470975875854,0.13578882813453674
2026-05-01T09:09:43.437000+00:00,1777626583437,S007,29,50,1777626583388,1777626583439,1777626583437,message,1777626583328,-0.028708506375551224,0.1286054253578186,0.1198083758354187,-1.4542003870010376,0.5281144976615906,0.17157861590385437
2026-05-01T09:09:43.437000+00:00,1777626583437,S007,29,50,1777626583388,1777626583439,1777626583437,message,1777626583348,-0.026800666004419327,0.1980113387107849,0.03954508900642395,-1.0924726724624634,0.4241083562374115,0.2804550230503082
2026-05-01T09:09:43.437000+00:00,1777626583437,S007,29,50,1777626583388,1777626583439,1777626583437,message,1777626583368,-0.003817085176706314,0.15057629346847534,0.0534248948097229,-1.244605302810669,0.4144640862941742,0.4439557194709778
2026-05-01T09:09:43.437000+00:00,1777626583437,S007,29,50,1777626583388,1777626583439,1777626583437,message,1777626583388,0.03216348588466644,0.193162739276886,-0.009637147188186646,-0.9325238466262817,0.4335893988609314,0.6216830015182495
2026-05-01T09:09:43.752000+00:00,1777626583752,S007,30,50,1777626583589,1777626583753,1777626583752,message,1777626583408,0.09019885957241058,0.2463347315788269,-0.07496240735054016,-0.1559487283229828,0.45016804337501526,0.7377827167510986
2026-05-01T09:09:43.752000+00:00,1777626583752,S007,30,50,1777626583589,1777626583753,1777626583752,message,1777626583428,0.10034793615341187,0.20018422603607178,-0.12081313133239746,0.6768316030502319,0.41038650274276733,0.7514822483062744
2026-05-01T09:09:43.752000+00:00,1777626583752,S007,30,50,1777626583589,1777626583753,1777626583752,message,1777626583448,0.07644133269786835,0.03301769495010376,-0.060133159160614014,1.1335761547088623,0.3090425133705139,0.6861467957496643
2026-05-01T09:09:43.752000+00:00,1777626583752,S007,30,50,1777626583589,1777626583753,1777626583752,message,1777626583468,0.04756172001361847,-0.02575969696044922,-0.039583951234817505,1.400630235671997,0.18375682830810547,0.5670300126075745
2026-05-01T09:09:43.752000+00:00,1777626583752,S007,30,50,1777626583589,1777626583753,1777626583752,message,1777626583488,0.024298906326293945,-0.0818856954574585,-0.004136949777603149,1.2291003465652466,0.07291120290756226,0.46665817499160767
2026-05-01T09:09:43.752000+00:00,1777626583752,S007,30,50,1777626583589,1777626583753,1777626583752,message,1777626583509,0.03997766971588135,-0.12425625324249268,0.08291256427764893,0.9581024050712585,-0.1031159907579422,0.29610541462898254
2026-05-01T09:09:43.752000+00:00,1777626583752,S007,30,50,1777626583589,1777626583753,1777626583752,message,1777626583529,0.056970998644828796,-0.21504884958267212,0.1419609785079956,0.9774447083473206,-0.2601999044418335,0.1084253191947937
2026-05-01T09:09:43.752000+00:00,1777626583752,S007,30,50,1777626583589,1777626583753,1777626583752,message,1777626583549,0.039958417415618896,-0.16429603099822998,0.10883009433746338,1.3833363056182861,-0.39190348982810974,-0.07977377623319626
2026-05-01T09:09:43.752000+00:00,1777626583752,S007,30,50,1777626583589,1777626583753,1777626583752,message,1777626583569,-0.0009253472089767456,-0.14001888036727905,0.04712840914726257,1.4253673553466797,-0.44157499074935913,-0.20173953473567963
2026-05-01T09:09:43.752000+00:00,1777626583752,S007,30,50,1777626583589,1777626583753,1777626583752,message,1777626583589,-0.0017724782228469849,-0.17352592945098877,0.09296151995658875,0.7913661599159241,-0.46507272124290466,-0.25527289509773254
2026-05-01T09:09:43.871000+00:00,1777626583871,S007,31,50,1777626583790,1777626583873,1777626583871,message,1777626583609,0.013166308403015137,-0.15732717514038086,0.13690292835235596,0.06013563275337219,-0.4854176342487335,-0.2743054926395416
2026-05-01T09:09:43.871000+00:00,1777626583871,S007,31,50,1777626583790,1777626583873,1777626583871,message,1777626583629,0.010734915733337402,-0.08371239900588989,0.10930603742599487,0.00782129168510437,-0.48628145456314087,-0.31956684589385986
2026-05-01T09:09:43.871000+00:00,1777626583871,S007,31,50,1777626583790,1777626583873,1777626583871,message,1777626583649,0.02336176484823227,0.01127314567565918,0.010809063911437988,0.4951823949813843,-0.477207750082016,-0.3078210949897766
2026-05-01T09:09:43.871000+00:00,1777626583871,S007,31,50,1777626583790,1777626583873,1777626583871,message,1777626583669,0.012750007212162018,0.08146673440933228,-0.009738028049468994,0.6815658807754517,-0.44167429208755493,-0.26725849509239197
2026-05-01T09:09:43.871000+00:00,1777626583871,S007,31,50,1777626583790,1777626583873,1777626583871,message,1777626583689,-0.022335469722747803,-0.029253602027893066,0.027552008628845215,0.3234626054763794,-0.4312823712825775,-0.27255430817604065
2026-05-01T09:09:43.871000+00:00,1777626583871,S007,31,50,1777626583790,1777626583873,1777626583871,message,1777626583709,-0.01824045181274414,-0.08822530508041382,0.0763930082321167,0.07855378091335297,-0.43605509400367737,-0.27175748348236084
2026-05-01T09:09:43.871000+00:00,1777626583871,S007,31,50,1777626583790,1777626583873,1777626583871,message,1777626583729,-0.042771115899086,0.015703320503234863,0.05592101812362671,0.226846843957901,-0.3800318241119385,-0.2972910702228546
2026-05-01T09:09:43.871000+00:00,1777626583871,S007,31,50,1777626583790,1777626583873,1777626583871,message,1777626583750,-0.05389603599905968,0.07976359128952026,-0.030974507331848145,0.6333336234092712,-0.36124101281166077,-0.2936582565307617
2026-05-01T09:09:43.871000+00:00,1777626583871,S007,31,50,1777626583790,1777626583873,1777626583871,message,1777626583770,-0.07076753675937653,0.025223195552825928,-0.056630730628967285,0.7418375015258789,-0.3136986196041107,-0.2744128108024597
2026-05-01T09:09:43.871000+00:00,1777626583871,S007,31,50,1777626583790,1777626583873,1777626583871,message,1777626583790,-0.03464506193995476,0.06876087188720703,-0.013254642486572266,0.39535489678382874,-0.17528659105300903,-0.011027788743376732
2026-05-01T09:09:44.048000+00:00,1777626584048,S007,32,50,1777626583992,1777626584039,1777626584048,message,1777626583810,0.05802444368600845,0.3728024959564209,-0.21708142757415771,0.66091388463974,-0.050585098564624786,0.11063036322593689
2026-05-01T09:09:44.048000+00:00,1777626584048,S007,32,50,1777626583992,1777626584039,1777626584048,message,1777626583830,0.05115127190947533,-0.0019010305404663086,-0.0287172794342041,0.23531009256839752,-0.08610645681619644,-0.025043418630957603
2026-05-01T09:09:44.048000+00:00,1777626584048,S007,32,50,1777626583992,1777626584039,1777626584048,message,1777626583850,0.003024265170097351,-0.2246260643005371,0.08263832330703735,-0.04928487539291382,-0.17812786996364594,-0.05348086357116699
2026-05-01T09:09:44.048000+00:00,1777626584048,S007,32,50,1777626583992,1777626584039,1777626584048,message,1777626583871,-0.04602105915546417,0.05091196298599243,-0.05394214391708374,0.14844419062137604,-0.17995819449424744,-0.034599319100379944
2026-05-01T09:09:44.048000+00:00,1777626584048,S007,32,50,1777626583992,1777626584039,1777626584048,message,1777626583893,-0.017464719712734222,0.04694318771362305,-0.042572021484375,0.13499176502227783,-0.18893492221832275,-0.041768018156290054
2026-05-01T09:09:44.048000+00:00,1777626584048,S007,32,50,1777626583992,1777626584039,1777626584048,message,1777626583910,-0.010693930089473724,-0.023823440074920654,-0.0001354217529296875,-0.04579214006662369,-0.20505265891551971,-0.060564715415239334
2026-05-01T09:09:44.048000+00:00,1777626584048,S007,32,50,1777626583992,1777626584039,1777626584048,message,1777626583930,-0.009930813685059547,0.01725822687149048,-0.0014147162437438965,0.06403715908527374,-0.1892550140619278,-0.052440956234931946
2026-05-01T09:09:44.048000+00:00,1777626584048,S007,32,50,1777626583992,1777626584039,1777626584048,message,1777626583954,0.03862273693084717,0.08233886957168579,0.009545207023620605,0.4852299690246582,-0.22403256595134735,-0.03432006016373634
2026-05-01T09:09:44.048000+00:00,1777626584048,S007,32,50,1777626583992,1777626584039,1777626584048,message,1777626583970,0.0362732857465744,0.039855778217315674,0.01195913553237915,0.6055395603179932,-0.24282214045524597,-0.008017564192414284
2026-05-01T09:09:44.048000+00:00,1777626584048,S007,32,50,1777626583992,1777626584039,1777626584048,message,1777626583992,0.04292425513267517,0.005274772644042969,0.042711853981018066,0.5275720953941345,-0.2177695631980896,0.026143919676542282
2026-05-01T09:09:44.309000+00:00,1777626584309,S007,33,50,1777626584193,1777626584215,1777626584309,message,1777626584012,0.04175737500190735,0.014148414134979248,0.036693036556243896,0.41979047656059265,-0.14285971224308014,0.038273606449365616
2026-05-01T09:09:44.309000+00:00,1777626584309,S007,33,50,1777626584193,1777626584215,1777626584309,message,1777626584031,0.008047865703701973,-0.035195887088775635,-0.010713279247283936,0.2676084041595459,-0.04283541440963745,0.031788330525159836
2026-05-01T09:09:44.309000+00:00,1777626584309,S007,33,50,1777626584193,1777626584215,1777626584309,message,1777626584055,-0.022122666239738464,-0.08255356550216675,-0.02927708625793457,0.10744509100914001,0.015213546343147755,0.015297025442123413
2026-05-01T09:09:44.309000+00:00,1777626584309,S007,33,50,1777626584193,1777626584215,1777626584309,message,1777626584071,-0.043401822447776794,0.001172780990600586,-0.0030281543731689453,-0.2844015061855316,0.028996849432587624,0.021441098302602768
2026-05-01T09:09:44.309000+00:00,1777626584309,S007,33,50,1777626584193,1777626584215,1777626584309,message,1777626584093,-0.045678842812776566,-0.11737686395645142,0.018016815185546875,-1.2192599773406982,-0.03129034489393234,0.02027926780283451
2026-05-01T09:09:44.309000+00:00,1777626584309,S007,33,50,1777626584193,1777626584215,1777626584309,message,1777626584112,-0.0384620800614357,-0.16462314128875732,0.04779881238937378,-2.0899112224578857,0.09267211705446243,0.09633062779903412
2026-05-01T09:09:44.309000+00:00,1777626584309,S007,33,50,1777626584193,1777626584215,1777626584309,message,1777626584131,-0.11815478652715683,-0.043433964252471924,-0.09166568517684937,-2.4546854496002197,0.42429402470588684,0.009346085600554943
2026-05-01T09:09:44.309000+00:00,1777626584309,S007,33,50,1777626584193,1777626584215,1777626584309,message,1777626584152,-0.13009610772132874,-0.1643316149711609,-0.06625780463218689,-2.970970869064331,0.7162314057350159,-0.013354059308767319
2026-05-01T09:09:44.309000+00:00,1777626584309,S007,33,50,1777626584193,1777626584215,1777626584309,message,1777626584171,-0.08327403664588928,-0.0495070219039917,-0.05252951383590698,-2.601034164428711,0.909030556678772,-0.029699744656682014
2026-05-01T09:09:44.309000+00:00,1777626584309,S007,33,50,1777626584193,1777626584215,1777626584309,message,1777626584193,-0.0727759450674057,0.044791579246520996,-0.05430150032043457,-1.7693614959716797,0.9942118525505066,0.002110703382641077
2026-05-01T09:09:44.490000+00:00,1777626584490,S007,34,50,1777626584397,1777626584488,1777626584490,message,1777626584212,-0.07502374798059464,0.1838383674621582,-0.14457523822784424,-1.174437403678894,1.081963300704956,0.030328866094350815
2026-05-01T09:09:44.490000+00:00,1777626584490,S007,34,50,1777626584397,1777626584488,1777626584490,message,1777626584231,-0.037896811962127686,0.08961737155914307,0.0392688512802124,-0.9609725475311279,1.083544135093689,0.16889724135398865
2026-05-01T09:09:44.490000+00:00,1777626584490,S007,34,50,1777626584397,1777626584488,1777626584490,message,1777626584252,-0.03426283597946167,0.26936477422714233,-0.09083336591720581,-0.4083556830883026,1.1466377973556519,0.34677109122276306
2026-05-01T09:09:44.490000+00:00,1777626584490,S007,34,50,1777626584397,1777626584488,1777626584490,message,1777626584278,-0.06773152947425842,0.21185296773910522,-0.07265156507492065,-0.29641130566596985,1.226017713546753,0.4407123923301697
2026-05-01T09:09:44.490000+00:00,1777626584490,S007,34,50,1777626584397,1777626584488,1777626584490,message,1777626584294,0.017065852880477905,0.08698141574859619,-0.02817264199256897,-0.3146347999572754,1.137804627418518,0.4312119483947754
2026-05-01T09:09:44.490000+00:00,1777626584490,S007,34,50,1777626584397,1777626584488,1777626584490,message,1777626584312,0.06242627650499344,-0.024850308895111084,0.06421899795532227,-0.18075154721736908,0.9258790612220764,0.4337228238582611
2026-05-01T09:09:44.490000+00:00,1777626584490,S007,34,50,1777626584397,1777626584488,1777626584490,message,1777626584332,0.041676610708236694,0.00898212194442749,0.08505979180335999,0.09565846621990204,0.8117738962173462,0.4203866720199585
2026-05-01T09:09:44.490000+00:00,1777626584490,S007,34,50,1777626584397,1777626584488,1777626584490,message,1777626584352,0.01014980673789978,0.0741395354270935,-0.0167064368724823,0.12536975741386414,0.754003643989563,0.42737123370170593
2026-05-01T09:09:44.490000+00:00,1777626584490,S007,34,50,1777626584397,1777626584488,1777626584490,message,1777626584372,0.021421045064926147,0.05388742685317993,-0.00790262222290039,0.2136162668466568,0.6596295833587646,0.4567607045173645
2026-05-01T09:09:44.490000+00:00,1777626584490,S007,34,50,1777626584397,1777626584488,1777626584490,message,1777626584396,0.044098153710365295,0.031035423278808594,0.04789721965789795,0.20817384123802185,0.5878679156303406,0.4255158007144928
2026-05-01T09:09:44.612000+00:00,1777626584612,S007,35,50,1777626584595,1777626584613,1777626584612,message,1777626584413,0.023766085505485535,-0.06255042552947998,0.07179194688796997,0.0073341988027095795,0.5147886872291565,0.3771860599517822
2026-05-01T09:09:44.612000+00:00,1777626584612,S007,35,50,1777626584595,1777626584613,1777626584612,message,1777626584433,0.024872541427612305,-0.07871055603027344,0.0807424783706665,-0.036331258714199066,0.4279162287712097,0.31307822465896606
2026-05-01T09:09:44.612000+00:00,1777626584612,S007,35,50,1777626584595,1777626584613,1777626584612,message,1777626584453,0.0031148046255111694,-0.11648786067962646,0.0673912763595581,-0.16105081140995026,0.3762072026729584,0.23126712441444397
2026-05-01T09:09:44.612000+00:00,1777626584612,S007,35,50,1777626584595,1777626584613,1777626584612,message,1777626584473,0.0011482685804367065,-0.15643996000289917,0.03774386644363403,-0.02768130972981453,0.26862937211990356,0.1281381994485855
2026-05-01T09:09:44.612000+00:00,1777626584612,S007,35,50,1777626584595,1777626584613,1777626584612,message,1777626584493,0.016934126615524292,-0.068123459815979,0.044011831283569336,0.26712048053741455,0.12768207490444183,0.061621326953172684
2026-05-01T09:09:44.612000+00:00,1777626584612,S007,35,50,1777626584595,1777626584613,1777626584612,message,1777626584513,0.011901870369911194,-0.020675182342529297,0.09122419357299805,0.4685758650302887,0.09231773018836975,-0.03649938106536865
2026-05-01T09:09:44.612000+00:00,1777626584612,S007,35,50,1777626584595,1777626584613,1777626584612,message,1777626584533,0.016270369291305542,-0.15530341863632202,0.12609031796455383,0.3373110592365265,-0.018254892900586128,-0.10465137660503387
2026-05-01T09:09:44.612000+00:00,1777626584612,S007,35,50,1777626584595,1777626584613,1777626584612,message,1777626584554,0.04104502499103546,-0.12663882970809937,0.17838910222053528,0.13290277123451233,-0.08048102259635925,-0.17247819900512695
2026-05-01T09:09:44.612000+00:00,1777626584612,S007,35,50,1777626584595,1777626584613,1777626584612,message,1777626584574,-0.0036869794130325317,-0.19423532485961914,0.13102400302886963,-0.3630582392215729,-0.10469383001327515,-0.18614985048770905
2026-05-01T09:09:44.612000+00:00,1777626584612,S007,35,50,1777626584595,1777626584613,1777626584612,message,1777626584594,0.0035560131072998047,-0.06064337491989136,0.09709033370018005,-0.400186687707901,-0.16039526462554932,-0.18490542471408844
2026-05-01T09:09:44.848000+00:00,1777626584848,S007,36,50,1777626584796,1777626584836,1777626584848,message,1777626584614,0.03704589605331421,0.03142303228378296,0.1030028760433197,-0.19230833649635315,-0.24822942912578583,-0.15531492233276367
2026-05-01T09:09:44.848000+00:00,1777626584848,S007,36,50,1777626584796,1777626584836,1777626584848,message,1777626584633,0.049698784947395325,0.00806647539138794,0.09363865852355957,-0.057807788252830505,-0.3016473054885864,-0.11444860696792603
2026-05-01T09:09:44.848000+00:00,1777626584848,S007,36,50,1777626584796,1777626584836,1777626584848,message,1777626584653,0.07381056249141693,0.007374465465545654,0.07467937469482422,-0.22614087164402008,-0.3163359761238098,-0.09042003005743027
2026-05-01T09:09:44.848000+00:00,1777626584848,S007,36,50,1777626584796,1777626584836,1777626584848,message,1777626584674,0.07994294166564941,-0.04306727647781372,0.02117946743965149,-0.41161563992500305,-0.3688604235649109,-0.10956666618585587
2026-05-01T09:09:44.848000+00:00,1777626584848,S007,36,50,1777626584796,1777626584836,1777626584848,message,1777626584694,0.0797412097454071,-0.03700542449951172,0.045425593852996826,-0.559370756149292,-0.375946044921875,-0.08790440857410431
2026-05-01T09:09:44.848000+00:00,1777626584848,S007,36,50,1777626584796,1777626584836,1777626584848,message,1777626584714,0.05482068657875061,0.002642691135406494,0.03496432304382324,-0.55368572473526,-0.375089168548584,-0.09084512293338776
2026-05-01T09:09:44.848000+00:00,1777626584848,S007,36,50,1777626584796,1777626584836,1777626584848,message,1777626584734,0.05792458355426788,0.046770691871643066,-0.03664296865463257,-0.5009151697158813,-0.32363373041152954,-0.07696126401424408
2026-05-01T09:09:44.848000+00:00,1777626584848,S007,36,50,1777626584796,1777626584836,1777626584848,message,1777626584754,0.010285556316375732,0.017220735549926758,-0.10159668326377869,-0.45101603865623474,-0.2084379643201828,-0.08160123229026794
2026-05-01T09:09:44.848000+00:00,1777626584848,S007,36,50,1777626584796,1777626584836,1777626584848,message,1777626584774,-0.04813341796398163,-0.08832722902297974,-0.20813575387001038,-0.25863808393478394,-0.016891049221158028,-0.12240464985370636
2026-05-01T09:09:44.848000+00:00,1777626584848,S007,36,50,1777626584796,1777626584836,1777626584848,message,1777626584796,-0.06481967866420746,-0.02600538730621338,-0.16697779297828674,-0.2039215862751007,0.06800976395606995,-0.18453842401504517
2026-05-01T09:09:44.984000+00:00,1777626584984,S007,37,50,1777626584997,1777626584987,1777626584984,message,1777626584814,-0.016627460718154907,0.06271684169769287,-0.023461192846298218,0.021924592554569244,0.015574519522488117,-0.16953475773334503
2026-05-01T09:09:44.984000+00:00,1777626584984,S007,37,50,1777626584997,1777626584987,1777626584984,message,1777626584835,-0.05063877999782562,0.09915947914123535,-0.006167680025100708,0.11648385226726532,-0.04895014688372612,-0.15711335837841034
2026-05-01T09:09:44.984000+00:00,1777626584984,S007,37,50,1777626584997,1777626584987,1777626584984,message,1777626584854,-0.08496007323265076,0.020741701126098633,-1.3530254364013672e-05,-0.12485606223344803,-0.024698525667190552,-0.1489972621202469
2026-05-01T09:09:44.984000+00:00,1777626584984,S007,37,50,1777626584997,1777626584987,1777626584984,message,1777626584875,-0.06940367817878723,0.006627559661865234,0.0010392069816589355,-0.173600435256958,-0.02788861282169819,-0.1287258118391037
2026-05-01T09:09:44.984000+00:00,1777626584984,S007,37,50,1777626584997,1777626584987,1777626584984,message,1777626584895,-0.024272948503494263,0.10038596391677856,-0.019501715898513794,0.1378117799758911,-0.052741724997758865,-0.11273481696844101
2026-05-01T09:09:44.984000+00:00,1777626584984,S007,37,50,1777626584997,1777626584987,1777626584984,message,1777626584915,-0.014759719371795654,0.0790143609046936,-0.06414026021957397,0.18784591555595398,0.004071298986673355,-0.11141457408666611
2026-05-01T09:09:44.984000+00:00,1777626584984,S007,37,50,1777626584997,1777626584987,1777626584984,message,1777626584935,0.014113232493400574,0.023377537727355957,-0.033323854207992554,0.14138254523277283,-0.0258625540882349,-0.054897457361221313
2026-05-01T09:09:44.984000+00:00,1777626584984,S007,37,50,1777626584997,1777626584987,1777626584984,message,1777626584955,0.056429147720336914,0.14635974168777466,-0.018649309873580933,0.3512558937072754,-0.06488220393657684,0.02752668783068657
2026-05-01T09:09:44.984000+00:00,1777626584984,S007,37,50,1777626584997,1777626584987,1777626584984,message,1777626584978,0.01896655559539795,0.0401272177696228,0.010368496179580688,0.22794461250305176,-0.07851998507976532,0.035498328506946564
2026-05-01T09:09:44.984000+00:00,1777626584984,S007,37,50,1777626584997,1777626584987,1777626584984,message,1777626584996,-0.005640313029289246,-0.04798239469528198,0.017464935779571533,0.10266045480966568,-0.0703665241599083,-0.014482494443655014
2026-05-01T09:09:45.254000+00:00,1777626585254,S007,38,50,1777626585197,1777626585252,1777626585254,message,1777626585015,-0.009420797228813171,-0.06079864501953125,0.02325385808944702,0.19175410270690918,-0.08372163027524948,-0.058302465826272964
2026-05-01T09:09:45.254000+00:00,1777626585254,S007,38,50,1777626585197,1777626585252,1777626585254,message,1777626585035,0.011416539549827576,0.000678718090057373,0.009069085121154785,0.3700402081012726,-0.0999097004532814,-0.06567563861608505
2026-05-01T09:09:45.254000+00:00,1777626585254,S007,38,50,1777626585197,1777626585252,1777626585254,message,1777626585055,0.01564505696296692,0.017099738121032715,0.028443187475204468,0.31424885988235474,-0.08775780349969864,-0.01240437664091587
2026-05-01T09:09:45.254000+00:00,1777626585254,S007,38,50,1777626585197,1777626585252,1777626585254,message,1777626585076,0.026196807622909546,0.042865872383117676,0.026976823806762695,0.2586234211921692,-0.07624005526304245,0.006913820747286081
2026-05-01T09:09:45.254000+00:00,1777626585254,S007,38,50,1777626585197,1777626585252,1777626585254,message,1777626585097,0.005775019526481628,-0.03114008903503418,0.03481948375701904,0.15041811764240265,-0.060243431478738785,-0.008015114814043045
2026-05-01T09:09:45.254000+00:00,1777626585254,S007,38,50,1777626585197,1777626585252,1777626585254,message,1777626585116,0.006880536675453186,0.0035185813903808594,0.030326932668685913,0.2237221598625183,-0.05327059328556061,-0.008635737001895905
2026-05-01T09:09:45.254000+00:00,1777626585254,S007,38,50,1777626585197,1777626585252,1777626585254,message,1777626585136,-0.005735218524932861,-0.005411028861999512,0.02156764268875122,0.22704285383224487,-0.0295154619961977,-0.014981037937104702
2026-05-01T09:09:45.254000+00:00,1777626585254,S007,38,50,1777626585197,1777626585252,1777626585254,message,1777626585156,-0.012951865792274475,-0.026460587978363037,0.013745337724685669,0.15164078772068024,0.013864884153008461,0.0048417747020721436
2026-05-01T09:09:45.254000+00:00,1777626585254,S007,38,50,1777626585197,1777626585252,1777626585254,message,1777626585177,-0.01208166778087616,0.040119171142578125,0.010625451803207397,0.14534133672714233,0.046812254935503006,-0.006212473846971989
2026-05-01T09:09:45.254000+00:00,1777626585254,S007,38,50,1777626585197,1777626585252,1777626585254,message,1777626585197,0.016902565956115723,-0.023335576057434082,0.02114129066467285,0.04277421161532402,0.04001728072762489,0.0030223035719245672
2026-05-01T09:09:45.415000+00:00,1777626585415,S007,39,50,1777626585398,1777626585405,1777626585415,message,1777626585216,-7.013976573944092e-05,-0.004674017429351807,0.014436304569244385,0.11480046808719635,0.023197170346975327,-0.004076299257576466
2026-05-01T09:09:45.415000+00:00,1777626585415,S007,39,50,1777626585398,1777626585405,1777626585415,message,1777626585236,-0.0024230480194091797,0.0074852705001831055,0.01569870114326477,0.16461622714996338,0.010605174116790295,-0.00432850094512105
2026-05-01T09:09:45.415000+00:00,1777626585415,S007,39,50,1777626585398,1777626585405,1777626585415,message,1777626585257,0.00126667320728302,-0.01648467779159546,0.022963225841522217,0.1682511866092682,-0.006933148484677076,-0.005342845339328051
2026-05-01T09:09:45.415000+00:00,1777626585415,S007,39,50,1777626585398,1777626585405,1777626585415,message,1777626585278,-0.004520729184150696,0.0007647871971130371,0.0122738778591156,0.10079783946275711,-0.00043062225449830294,-0.011859706602990627
2026-05-01T09:09:45.415000+00:00,1777626585415,S007,39,50,1777626585398,1777626585405,1777626585415,message,1777626585297,-0.008797615766525269,-0.0035865306854248047,0.008346766233444214,-0.07494468986988068,0.0207502581179142,0.0008983791340142488
2026-05-01T09:09:45.415000+00:00,1777626585415,S007,39,50,1777626585398,1777626585405,1777626585415,message,1777626585317,-0.009044617414474487,0.020768702030181885,-0.006283283233642578,-0.09951262176036835,0.040763914585113525,0.003457996528595686
2026-05-01T09:09:45.415000+00:00,1777626585415,S007,39,50,1777626585398,1777626585405,1777626585415,message,1777626585337,-0.001710742712020874,0.0034110546112060547,-0.017503052949905396,-0.06123980134725571,0.09276746213436127,-1.1836025805678219e-05
2026-05-01T09:09:45.415000+00:00,1777626585415,S007,39,50,1777626585398,1777626585405,1777626585415,message,1777626585357,-0.0030512064695358276,-0.02670156955718994,-0.027267664670944214,-0.04433991760015488,0.10753948241472244,0.008298025466501713
2026-05-01T09:09:45.415000+00:00,1777626585415,S007,39,50,1777626585398,1777626585405,1777626585415,message,1777626585378,-0.005700200796127319,0.005189359188079834,-0.0023015737533569336,0.06977840512990952,0.09052295237779617,-0.0065573533065617085
2026-05-01T09:09:45.415000+00:00,1777626585415,S007,39,50,1777626585398,1777626585405,1777626585415,message,1777626585398,-0.0029035955667495728,0.006307363510131836,0.008720636367797852,0.03701912239193916,0.0829450786113739,-0.007114806212484837
2026-05-01T09:09:45.581000+00:00,1777626585581,S007,40,50,1777626585598,1777626585571,1777626585581,message,1777626585418,0.00218982994556427,0.0084916353225708,0.007301926612854004,0.03235512971878052,0.06252183020114899,-0.00909087248146534
2026-05-01T09:09:45.581000+00:00,1777626585581,S007,40,50,1777626585598,1777626585571,1777626585581,message,1777626585437,0.01020658016204834,0.02882564067840576,0.005968272686004639,0.06107039377093315,0.05502266809344292,-0.006919117644429207
2026-05-01T09:09:45.581000+00:00,1777626585581,S007,40,50,1777626585598,1777626585571,1777626585581,message,1777626585457,0.008579015731811523,-0.010010063648223877,-0.0006442666053771973,0.02086492069065571,0.04256166145205498,-0.010530151426792145
2026-05-01T09:09:45.581000+00:00,1777626585581,S007,40,50,1777626585598,1777626585571,1777626585581,message,1777626585478,0.010743558406829834,0.002433478832244873,-0.0029826760292053223,0.050933871418237686,0.022705284878611565,-0.014566224068403244
2026-05-01T09:09:45.581000+00:00,1777626585581,S007,40,50,1777626585598,1777626585571,1777626585581,message,1777626585498,0.006321504712104797,0.0058977603912353516,-0.0006965100765228271,0.09551598131656647,-0.018167313188314438,-0.020125839859247208
2026-05-01T09:09:45.581000+00:00,1777626585581,S007,40,50,1777626585598,1777626585571,1777626585581,message,1777626585521,0.008285373449325562,0.015053808689117432,0.01110026240348816,0.14875072240829468,-0.03454099968075752,-0.02541743405163288
2026-05-01T09:09:45.581000+00:00,1777626585581,S007,40,50,1777626585598,1777626585571,1777626585581,message,1777626585538,0.0022820979356765747,-0.005977213382720947,0.0004806816577911377,0.1397489607334137,-0.05510098114609718,-0.018702540546655655
2026-05-01T09:09:45.581000+00:00,1777626585581,S007,40,50,1777626585598,1777626585571,1777626585581,message,1777626585558,-0.00033861398696899414,-0.0034401416778564453,-0.008357226848602295,0.14538395404815674,-0.04147610068321228,-0.018782008439302444
2026-05-01T09:09:45.581000+00:00,1777626585581,S007,40,50,1777626585598,1777626585571,1777626585581,message,1777626585578,0.0015840232372283936,-0.01409977674484253,-0.0023599863052368164,0.059228286147117615,-0.028593512251973152,-0.013898516073822975
2026-05-01T09:09:45.581000+00:00,1777626585581,S007,40,50,1777626585598,1777626585571,1777626585581,message,1777626585598,0.004518389701843262,-0.01094365119934082,-0.0032058358192443848,0.028555862605571747,-0.02427694760262966,-0.01683236099779606
2026-05-01T09:09:45.877000+00:00,1777626585877,S007,41,50,1777626585799,1777626585868,1777626585877,message,1777626585618,0.00968906283378601,0.0033736824989318848,0.006048619747161865,0.030485324561595917,-0.04064545780420303,-0.021632017567753792
2026-05-01T09:09:45.877000+00:00,1777626585877,S007,41,50,1777626585799,1777626585868,1777626585877,message,1777626585638,0.01389572024345398,-0.0006336569786071777,0.005922079086303711,0.016564179211854935,-0.04856178164482117,-0.018194835633039474
2026-05-01T09:09:45.877000+00:00,1777626585877,S007,41,50,1777626585799,1777626585868,1777626585877,message,1777626585659,0.0006830841302871704,-0.009271502494812012,0.004645884037017822,-0.014462443068623543,-0.03077334724366665,-0.014870463870465755
2026-05-01T09:09:45.877000+00:00,1777626585877,S007,41,50,1777626585799,1777626585868,1777626585877,message,1777626585680,-0.004303112626075745,-0.0058615803718566895,-0.0011587440967559814,-0.00821733195334673,-0.016321439296007156,-0.006705851294100285
2026-05-01T09:09:45.877000+00:00,1777626585877,S007,41,50,1777626585799,1777626585868,1777626585877,message,1777626585699,-0.0006413012742996216,-0.004365861415863037,-0.0037208497524261475,-0.016166068613529205,-0.01961367577314377,0.0010277554392814636
2026-05-01T09:09:45.877000+00:00,1777626585877,S007,41,50,1777626585799,1777626585868,1777626585877,message,1777626585719,0.00262296199798584,0.003343343734741211,0.0008189976215362549,0.015832876786589622,-0.021352073177695274,0.003231041831895709
2026-05-01T09:09:45.877000+00:00,1777626585877,S007,41,50,1777626585799,1777626585868,1777626585877,message,1777626585739,0.005673468112945557,0.004559218883514404,0.005226254463195801,0.05674728751182556,-0.04412514716386795,0.0045657651498913765
2026-05-01T09:09:45.877000+00:00,1777626585877,S007,41,50,1777626585799,1777626585868,1777626585877,message,1777626585759,0.003251403570175171,0.007195770740509033,0.004300147294998169,0.07290655374526978,-0.036944158375263214,-0.0005901149124838412
2026-05-01T09:09:45.877000+00:00,1777626585877,S007,41,50,1777626585799,1777626585868,1777626585877,message,1777626585779,-0.007078886032104492,-0.0046471357345581055,0.005795538425445557,0.048749811947345734,-0.02204788103699684,-0.006570136174559593
2026-05-01T09:09:45.877000+00:00,1777626585877,S007,41,50,1777626585799,1777626585868,1777626585877,message,1777626585799,-0.00796256959438324,-0.011047601699829102,-0.010144442319869995,0.029434172436594963,-0.013085013255476952,0.0039177644066512585
2026-05-01T09:09:45.997000+00:00,1777626585997,S007,42,50,1777626586001,1777626585997,1777626585997,message,1777626585819,-0.004514977335929871,-0.0026760101318359375,0.004041939973831177,0.021744560450315475,-0.00981780793517828,0.002737025497481227
2026-05-01T09:09:45.997000+00:00,1777626585997,S007,42,50,1777626586001,1777626585997,1777626585997,message,1777626585839,0.0008590072393417358,0.010265231132507324,0.0018806159496307373,0.03722498565912247,-0.007166403811424971,-0.0008124888991005719
2026-05-01T09:09:45.997000+00:00,1777626585997,S007,42,50,1777626586001,1777626585997,1777626585997,message,1777626585859,0.004915833473205566,-0.0006605982780456543,0.010254383087158203,0.02585781365633011,-0.016578128561377525,-0.004122212529182434
2026-05-01T09:09:45.997000+00:00,1777626585997,S007,42,50,1777626586001,1777626585997,1777626585997,message,1777626585880,0.008452191948890686,0.009568452835083008,0.008006542921066284,0.04905101656913757,-0.02946767769753933,-0.004733727313578129
2026-05-01T09:09:45.997000+00:00,1777626585997,S007,42,50,1777626586001,1777626585997,1777626585997,message,1777626585900,0.009735986590385437,-0.0034166574478149414,0.00860247015953064,0.04302108660340309,-0.03532727435231209,-0.0002445963036734611
2026-05-01T09:09:45.997000+00:00,1777626585997,S007,42,50,1777626586001,1777626585997,1777626585997,message,1777626585920,0.004840061068534851,0.0008929967880249023,0.0007632672786712646,0.08465109765529633,-0.03681895136833191,-0.0014854163164272904
2026-05-01T09:09:45.997000+00:00,1777626585997,S007,42,50,1777626586001,1777626585997,1777626585997,message,1777626585940,0.0016354620456695557,0.003918170928955078,-0.00322878360748291,0.12166529893875122,-0.04183550924062729,-0.0035035598557442427
2026-05-01T09:09:45.997000+00:00,1777626585997,S007,42,50,1777626586001,1777626585997,1777626585997,message,1777626585960,0.004831239581108093,0.006915688514709473,-0.0018007159233093262,0.20252393186092377,-0.05591727793216705,-0.00397866778075695
2026-05-01T09:09:45.997000+00:00,1777626585997,S007,42,50,1777626586001,1777626585997,1777626585997,message,1777626585980,-0.004716590046882629,0.007823348045349121,-0.006274044513702393,0.22386810183525085,-0.059500906616449356,-0.004671675618737936
2026-05-01T09:09:45.997000+00:00,1777626585997,S007,42,50,1777626586001,1777626585997,1777626585997,message,1777626586001,-0.0035701394081115723,-0.00794839859008789,0.008399814367294312,0.20049193501472473,-0.06695239245891571,0.0014697335427626967
2026-05-01T09:09:46.184000+00:00,1777626586184,S007,43,50,1777626586201,1777626586187,1777626586184,message,1777626586020,-0.0007328242063522339,0.006795227527618408,0.011931538581848145,0.2006397396326065,-0.06314227730035782,0.0035297952126711607
2026-05-01T09:09:46.184000+00:00,1777626586184,S007,43,50,1777626586201,1777626586187,1777626586184,message,1777626586040,-0.0007891952991485596,-0.009321093559265137,0.008592665195465088,0.11955635249614716,-0.049803804606199265,-0.002975082490593195
2026-05-01T09:09:46.184000+00:00,1777626586184,S007,43,50,1777626586201,1777626586187,1777626586184,message,1777626586060,-0.0025255978107452393,-0.010114729404449463,-0.00015249848365783691,0.09510959684848785,-0.04057089239358902,-0.0035588473547250032
2026-05-01T09:09:46.184000+00:00,1777626586184,S007,43,50,1777626586201,1777626586187,1777626586184,message,1777626586080,-0.0017985254526138306,-0.002738356590270996,-0.0066356360912323,0.0799519419670105,-0.03414848446846008,0.000270192715106532
2026-05-01T09:09:46.184000+00:00,1777626586184,S007,43,50,1777626586201,1777626586187,1777626586184,message,1777626586101,0.003961935639381409,0.00027763843536376953,-0.000988781452178955,0.06214391440153122,-0.0375036895275116,-0.005640480201691389
2026-05-01T09:09:46.184000+00:00,1777626586184,S007,43,50,1777626586201,1777626586187,1777626586184,message,1777626586120,0.004577040672302246,0.00023680925369262695,-0.002211958169937134,0.0806206613779068,-0.030419224873185158,0.0031527450773864985
2026-05-01T09:09:46.184000+00:00,1777626586184,S007,43,50,1777626586201,1777626586187,1777626586184,message,1777626586141,0.008607342839241028,0.008886158466339111,0.005657166242599487,0.1265074610710144,-0.010506692342460155,0.013103699311614037
2026-05-01T09:09:46.184000+00:00,1777626586184,S007,43,50,1777626586201,1777626586187,1777626586184,message,1777626586164,0.002479851245880127,-0.008967041969299316,-0.0002270340919494629,0.0888919085264206,0.0002643865591380745,0.00960899330675602
2026-05-01T09:09:46.184000+00:00,1777626586184,S007,43,50,1777626586201,1777626586187,1777626586184,message,1777626586181,0.0017331093549728394,-0.001452028751373291,0.011960327625274658,0.09197744727134705,0.002868387382477522,0.008655793964862823
2026-05-01T09:09:46.184000+00:00,1777626586184,S007,43,50,1777626586201,1777626586187,1777626586184,message,1777626586200,0.0007514208555221558,0.0033355355262756348,0.007246255874633789,0.10550018399953842,-0.0004692761867772788,0.0050131757743656635
2026-05-01T09:09:46.483000+00:00,1777626586483,S007,44,50,1777626586402,1777626586474,1777626586483,message,1777626586221,0.00024309754371643066,-0.006002187728881836,0.008316606283187866,0.10568127036094666,-0.01747238077223301,0.0051373327150940895
2026-05-01T09:09:46.483000+00:00,1777626586483,S007,44,50,1777626586402,1777626586474,1777626586483,message,1777626586241,3.571808338165283e-05,0.0054441094398498535,-0.004339337348937988,0.1323576271533966,-0.03360329940915108,0.0010881025809794664
2026-05-01T09:09:46.483000+00:00,1777626586483,S007,44,50,1777626586402,1777626586474,1777626586483,message,1777626586263,-0.0008205622434616089,0.00471186637878418,-0.006264805793762207,0.16310222446918488,-0.044498592615127563,0.0032025459222495556
2026-05-01T09:09:46.483000+00:00,1777626586483,S007,44,50,1777626586402,1777626586474,1777626586483,message,1777626586282,-0.0020628273487091064,-0.005805552005767822,-0.010370105504989624,0.15196780860424042,-0.04341248422861099,-0.00046430708607658744
2026-05-01T09:09:46.483000+00:00,1777626586483,S007,44,50,1777626586402,1777626586474,1777626586483,message,1777626586301,-0.001035064458847046,-0.004153847694396973,-0.004795432090759277,0.1332862675189972,-0.044512633234262466,-0.007744643837213516
2026-05-01T09:09:46.483000+00:00,1777626586483,S007,44,50,1777626586402,1777626586474,1777626586483,message,1777626586322,0.005831167101860046,-0.0011889934539794922,0.004330068826675415,0.15040001273155212,-0.035908833146095276,-0.003975738305598497
2026-05-01T09:09:46.483000+00:00,1777626586483,S007,44,50,1777626586402,1777626586474,1777626586483,message,1777626586341,0.002629607915878296,0.004413187503814697,0.005679190158843994,0.21329854428768158,-0.05361706763505936,0.014014714397490025
2026-05-01T09:09:46.483000+00:00,1777626586483,S007,44,50,1777626586402,1777626586474,1777626586483,message,1777626586363,0.0029043257236480713,0.03267925977706909,0.010256648063659668,0.2913243770599365,-0.07992483675479889,0.01922156661748886
2026-05-01T09:09:46.483000+00:00,1777626586483,S007,44,50,1777626586402,1777626586474,1777626586483,message,1777626586382,-0.0017248690128326416,0.004595041275024414,0.014939278364181519,0.2871876657009125,-0.10407795757055283,0.02687879279255867
2026-05-01T09:09:46.483000+00:00,1777626586483,S007,44,50,1777626586402,1777626586474,1777626586483,message,1777626586402,0.006741061806678772,-0.0007417798042297363,-0.022445976734161377,0.31811046600341797,-0.1003299355506897,0.03030308708548546
2026-05-01T09:09:46.653000+00:00,1777626586653,S007,45,50,1777626586603,1777626586606,1777626586653,message,1777626586422,0.006448179483413696,-0.015811622142791748,-0.0221976637840271,0.36098307371139526,-0.08264084160327911,0.03537118807435036
2026-05-01T09:09:46.653000+00:00,1777626586653,S007,45,50,1777626586603,1777626586606,1777626586653,message,1777626586442,0.007491886615753174,-0.0016957521438598633,0.00343167781829834,0.31926095485687256,-0.058371949940919876,0.024439871311187744
2026-05-01T09:09:46.653000+00:00,1777626586653,S007,45,50,1777626586603,1777626586606,1777626586653,message,1777626586464,0.00881887972354889,-0.01872199773788452,0.015636563301086426,0.1982133388519287,-0.04749218001961708,0.024314435198903084
2026-05-01T09:09:46.653000+00:00,1777626586653,S007,45,50,1777626586603,1777626586606,1777626586653,message,1777626586482,0.004364758729934692,-0.013848483562469482,0.03201362490653992,0.11188618093729019,-0.04134020209312439,0.01825915277004242
2026-05-01T09:09:46.653000+00:00,1777626586653,S007,45,50,1777626586603,1777626586606,1777626586653,message,1777626586502,-0.0008679181337356567,0.010208964347839355,0.013768881559371948,0.22382335364818573,-0.05182963237166405,0.01627429760992527
2026-05-01T09:09:46.653000+00:00,1777626586653,S007,45,50,1777626586603,1777626586606,1777626586653,message,1777626586523,-0.01822887361049652,0.007149636745452881,-0.004882127046585083,0.21580538153648376,-0.030751511454582214,0.005277520976960659
2026-05-01T09:09:46.653000+00:00,1777626586653,S007,45,50,1777626586603,1777626586606,1777626586653,message,1777626586543,-0.02095721662044525,-0.03130990266799927,0.005650877952575684,0.07529114931821823,-0.008924317546188831,0.00024798186495900154
2026-05-01T09:09:46.653000+00:00,1777626586653,S007,45,50,1777626586603,1777626586606,1777626586653,message,1777626586563,-0.009117484092712402,-0.01139366626739502,-0.004985213279724121,0.042495112866163254,-0.0024340804666280746,-0.004652979783713818
2026-05-01T09:09:46.653000+00:00,1777626586653,S007,45,50,1777626586603,1777626586606,1777626586653,message,1777626586583,-0.003039225935935974,-0.01734095811843872,-0.00879448652267456,0.010272461920976639,0.0016803512116894126,-0.009881511330604553
2026-05-01T09:09:46.653000+00:00,1777626586653,S007,45,50,1777626586603,1777626586606,1777626586653,message,1777626586603,0.0014520585536956787,-0.009032070636749268,-0.008116155862808228,0.03429790586233139,0.0039721159264445305,-0.012531036511063576
2026-05-01T09:09:46.999000+00:00,1777626586999,S007,46,50,1777626586804,1777626587001,1777626586999,message,1777626586623,-0.00202372670173645,-0.007261753082275391,-0.014674156904220581,0.03567236289381981,0.006185621023178101,-0.018489647656679153
2026-05-01T09:09:46.999000+00:00,1777626586999,S007,46,50,1777626586804,1777626587001,1777626586999,message,1777626586643,-0.0016876906156539917,-0.004539132118225098,0.0033443868160247803,-0.021711569279432297,0.012852806597948074,-0.0222494974732399
2026-05-01T09:09:46.999000+00:00,1777626586999,S007,46,50,1777626586804,1777626587001,1777626586999,message,1777626586664,-0.0026609301567077637,0.0007600784301757812,-0.01388537883758545,0.0129310991615057,0.012053325772285461,-0.026408236473798752
2026-05-01T09:09:46.999000+00:00,1777626586999,S007,46,50,1777626586804,1777626587001,1777626586999,message,1777626586683,-0.006194785237312317,-0.009296715259552002,-0.017348289489746094,-0.019531771540641785,0.021786760538816452,-0.01910744607448578
2026-05-01T09:09:46.999000+00:00,1777626586999,S007,46,50,1777626586804,1777626587001,1777626586999,message,1777626586703,0.004149593412876129,0.005061209201812744,0.006388366222381592,-0.045107968151569366,0.013011112809181213,-0.020860711112618446
2026-05-01T09:09:46.999000+00:00,1777626586999,S007,46,50,1777626586804,1777626587001,1777626586999,message,1777626586723,0.010818734765052795,1.0728836059570312e-05,0.0031471848487854004,-0.03502604365348816,-0.012368698604404926,-0.019913585856556892
2026-05-01T09:09:46.999000+00:00,1777626586999,S007,46,50,1777626586804,1777626587001,1777626586999,message,1777626586746,0.013553105294704437,0.011104106903076172,0.006565868854522705,-0.0020606350153684616,-0.03655004873871803,-0.012554685585200787
2026-05-01T09:09:46.999000+00:00,1777626586999,S007,46,50,1777626586804,1777626587001,1777626586999,message,1777626586765,0.013238184154033661,0.011186957359313965,0.0012584030628204346,0.009046610444784164,-0.06454174220561981,-0.010782511904835701
2026-05-01T09:09:46.999000+00:00,1777626586999,S007,46,50,1777626586804,1777626587001,1777626586999,message,1777626586784,0.0005407407879829407,-0.004256844520568848,0.0005383491516113281,-0.06524866074323654,-0.05763368681073189,-0.002971673384308815
2026-05-01T09:09:46.999000+00:00,1777626586999,S007,46,50,1777626586804,1777626587001,1777626586999,message,1777626586804,-0.008471682667732239,-0.01071256399154663,-0.008451849222183228,-0.13683229684829712,-0.05608224496245384,0.008529081009328365
2026-05-01T09:09:47.128000+00:00,1777626587128,S007,47,50,1777626587005,1777626587115,1777626587128,message,1777626586824,-0.004213124513626099,0.0014892816543579102,-0.00500836968421936,-0.09340199828147888,-0.04102100059390068,0.015402273274958134
2026-05-01T09:09:47.128000+00:00,1777626587128,S007,47,50,1777626587005,1777626587115,1777626587128,message,1777626586844,-0.002319738268852234,0.0157773494720459,-0.01383867859840393,0.05230008065700531,-0.0492125041782856,0.03793090954422951
2026-05-01T09:09:47.128000+00:00,1777626587128,S007,47,50,1777626587005,1777626587115,1777626587128,message,1777626586864,0.006098143756389618,0.04992079734802246,-0.007292836904525757,0.1793871819972992,-0.05904451385140419,0.04614788293838501
2026-05-01T09:09:47.128000+00:00,1777626587128,S007,47,50,1777626587005,1777626587115,1777626587128,message,1777626586884,-0.0009773746132850647,0.010503530502319336,0.01948678493499756,0.10780169069766998,-0.047429367899894714,0.0838366150856018
2026-05-01T09:09:47.128000+00:00,1777626587128,S007,47,50,1777626587005,1777626587115,1777626587128,message,1777626586904,0.0013996735215187073,0.032936155796051025,-0.012340664863586426,0.2108023762702942,-0.02878621034324169,0.10946740955114365
2026-05-01T09:09:47.128000+00:00,1777626587128,S007,47,50,1777626587005,1777626587115,1777626587128,message,1777626586924,0.01022939383983612,0.02238219976425171,-0.015895426273345947,0.20515434443950653,-0.012220626696944237,0.13546833395957947
2026-05-01T09:09:47.128000+00:00,1777626587128,S007,47,50,1777626587005,1777626587115,1777626587128,message,1777626586944,0.01975652575492859,0.023401319980621338,0.008809506893157959,0.2133834958076477,-0.044991735368967056,0.17998157441616058
2026-05-01T09:09:47.128000+00:00,1777626587128,S007,47,50,1777626587005,1777626587115,1777626587128,message,1777626586965,0.03144612908363342,0.0819317102432251,0.0063471198081970215,0.3407694101333618,-0.030232345685362816,0.2038414180278778
2026-05-01T09:09:47.128000+00:00,1777626587128,S007,47,50,1777626587005,1777626587115,1777626587128,message,1777626586984,-0.0024953335523605347,-0.0021029114723205566,0.0074211061000823975,0.19824741780757904,0.016628902405500412,0.210535928606987
2026-05-01T09:09:47.128000+00:00,1777626587128,S007,47,50,1777626587005,1777626587115,1777626587128,message,1777626587004,-0.024970442056655884,-0.04768252372741699,-0.0278797447681427,-0.009342782199382782,0.07279904186725616,0.18660545349121094
2026-05-01T09:09:47.245000+00:00,1777626587245,S007,48,50,1777626587206,1777626587230,1777626587245,message,1777626587025,-0.02027493715286255,-0.039484620094299316,0.004918694496154785,-0.21542617678642273,0.07966569811105728,0.17789483070373535
2026-05-01T09:09:47.245000+00:00,1777626587245,S007,48,50,1777626587206,1777626587230,1777626587245,message,1777626587045,-0.019772663712501526,-0.040753960609436035,0.005619943141937256,-0.2018003761768341,0.02743886411190033,0.15963827073574066
2026-05-01T09:09:47.245000+00:00,1777626587245,S007,48,50,1777626587206,1777626587230,1777626587245,message,1777626587065,-0.0068861693143844604,-0.037118613719940186,0.02167057991027832,-0.17138095200061798,-0.007167012430727482,0.13023681938648224
2026-05-01T09:09:47.245000+00:00,1777626587245,S007,48,50,1777626587206,1777626587230,1777626587245,message,1777626587085,-0.00859186053276062,-0.062125563621520996,0.011923789978027344,-0.2760581076145172,-0.014355949126183987,0.11162868142127991
2026-05-01T09:09:47.245000+00:00,1777626587245,S007,48,50,1777626587206,1777626587230,1777626587245,message,1777626587105,-0.005384624004364014,-0.051682114601135254,0.00868833065032959,-0.3130885362625122,0.014466301538050175,0.08505725115537643
2026-05-01T09:09:47.245000+00:00,1777626587245,S007,48,50,1777626587206,1777626587230,1777626587245,message,1777626587125,-0.00265561044216156,-0.0169488787651062,-0.008128225803375244,-0.2917260229587555,0.00984933227300644,0.07001156359910965
2026-05-01T09:09:47.245000+00:00,1777626587245,S007,48,50,1777626587206,1777626587230,1777626587245,message,1777626587145,0.004252105951309204,0.013208866119384766,-0.01190328598022461,-0.22286704182624817,-0.015869157388806343,0.06193915009498596
