local_ts,local_ts_ms,session_id,sequence,sample_rate_hz,watch_sent_at,phone_received_at,server_received_ms,source,ts,ax,ay,az,rx,ry,rz
2026-05-01T09:12:15.334000+00:00,1777626735334,S009,0,50,1777626735177,1777626735221,1777626735334,message,1777626735018,-0.05703449249267578,0.10969524085521698,0.10819584131240845,-0.10017921030521393,0.7722286581993103,-0.1876547485589981
2026-05-01T09:12:15.334000+00:00,1777626735334,S009,0,50,1777626735177,1777626735221,1777626735334,message,1777626735026,-0.04158499836921692,0.10074256360530853,0.09265196323394775,0.029988378286361694,0.6448118686676025,-0.1486884504556656
2026-05-01T09:12:15.334000+00:00,1777626735334,S009,0,50,1777626735177,1777626735221,1777626735334,message,1777626735037,-0.04320821166038513,0.055962786078453064,0.09205079078674316,0.06470241397619247,0.5628966093063354,-0.11551057547330856
2026-05-01T09:12:15.334000+00:00,1777626735334,S009,0,50,1777626735177,1777626735221,1777626735334,message,1777626735055,-0.024146556854248047,0.061560675501823425,0.10624921321868896,-0.03440925478935242,0.4668284058570862,-0.06858626753091812
2026-05-01T09:12:15.334000+00:00,1777626735334,S009,0,50,1777626735177,1777626735221,1777626735334,message,1777626735075,-0.0057953596115112305,0.043007418513298035,0.10526317358016968,-0.24140451848506927,0.36836087703704834,-0.02121475152671337
2026-05-01T09:12:15.334000+00:00,1777626735334,S009,0,50,1777626735177,1777626735221,1777626735334,message,1777626735095,0.02002963423728943,0.02918224036693573,0.10715144872665405,-0.3496883809566498,0.2618691325187683,0.016126547008752823
2026-05-01T09:12:15.334000+00:00,1777626735334,S009,0,50,1777626735177,1777626735221,1777626735334,message,1777626735116,0.019584596157073975,0.06938065588474274,0.09478139877319336,-0.060214221477508545,0.17945753037929535,0.020000329241156578
2026-05-01T09:12:15.334000+00:00,1777626735334,S009,0,50,1777626735177,1777626735221,1777626735334,message,1777626735137,0.0276242196559906,0.0341673344373703,0.10870742797851562,0.15370818972587585,0.09304138273000717,-0.007588742300868034
2026-05-01T09:12:15.334000+00:00,1777626735334,S009,0,50,1777626735177,1777626735221,1777626735334,message,1777626735156,0.023093044757843018,-0.018670618534088135,0.11459571123123169,0.0289382915943861,0.06421221047639847,-0.04627557843923569
2026-05-01T09:12:15.334000+00:00,1777626735334,S009,0,50,1777626735177,1777626735221,1777626735334,message,1777626735176,0.024442583322525024,-0.08730483055114746,0.13300925493240356,-0.46497952938079834,0.0475667305290699,-0.060433581471443176
2026-05-01T09:12:15.435000+00:00,1777626735435,S009,1,50,1777626735377,1777626735434,1777626735435,message,1777626735196,0.0318969190120697,-0.09284965693950653,0.10681736469268799,-0.9091407656669617,0.015136467292904854,-0.05526023358106613
2026-05-01T09:12:15.435000+00:00,1777626735435,S009,1,50,1777626735377,1777626735434,1777626735435,message,1777626735216,0.03169324994087219,-0.07285194098949432,0.06982278823852539,-1.0203090906143188,-0.027611415833234787,-0.05147982016205788
2026-05-01T09:12:15.435000+00:00,1777626735435,S009,1,50,1777626735377,1777626735434,1777626735435,message,1777626735236,0.021931201219558716,-0.02000674605369568,0.07224833965301514,-0.8860855102539062,-0.06112699210643768,-0.07417523115873337
2026-05-01T09:12:15.435000+00:00,1777626735435,S009,1,50,1777626735377,1777626735434,1777626735435,message,1777626735256,0.028161346912384033,0.0045404136180877686,0.11918586492538452,-0.9427005648612976,-0.09857781231403351,-0.06870967149734497
2026-05-01T09:12:15.435000+00:00,1777626735435,S009,1,50,1777626735377,1777626735434,1777626735435,message,1777626735276,0.03611201047897339,-0.04417368769645691,0.1387231945991516,-1.30130934715271,-0.14484292268753052,-0.06503397971391678
2026-05-01T09:12:15.435000+00:00,1777626735435,S009,1,50,1777626735377,1777626735434,1777626735435,message,1777626735297,0.037064939737319946,-0.047379642724990845,0.056717097759246826,-1.373262882232666,-0.13756553828716278,-0.10503370314836502
2026-05-01T09:12:15.435000+00:00,1777626735435,S009,1,50,1777626735377,1777626735434,1777626735435,message,1777626735317,0.04233741760253906,-0.01621413230895996,0.03200423717498779,-1.1718965768814087,-0.1490209698677063,-0.1347881257534027
2026-05-01T09:12:15.435000+00:00,1777626735435,S009,1,50,1777626735377,1777626735434,1777626735435,message,1777626735337,0.02779144048690796,0.012055933475494385,0.059069693088531494,-1.0140644311904907,-0.18097004294395447,-0.1667635291814804
2026-05-01T09:12:15.435000+00:00,1777626735435,S009,1,50,1777626735377,1777626735434,1777626735435,message,1777626735357,0.028703004121780396,-0.04010459780693054,0.12157624959945679,-1.1851112842559814,-0.28283482789993286,-0.1550111621618271
2026-05-01T09:12:15.435000+00:00,1777626735435,S009,1,50,1777626735377,1777626735434,1777626735435,message,1777626735377,0.030865758657455444,-0.04885092377662659,0.06221020221710205,-1.3500659465789795,-0.3528386056423187,-0.1846788376569748
2026-05-01T09:12:15.608000+00:00,1777626735608,S009,2,50,1777626735578,1777626735602,1777626735608,message,1777626735397,0.013498842716217041,-0.05072206258773804,-0.0562593936920166,-1.360878586769104,-0.3041813373565674,-0.17080383002758026
2026-05-01T09:12:15.608000+00:00,1777626735608,S009,2,50,1777626735578,1777626735602,1777626735608,message,1777626735417,0.018025755882263184,-0.03637278079986572,-0.03455924987792969,-1.4295223951339722,-0.2860361933708191,-0.19717682898044586
2026-05-01T09:12:15.608000+00:00,1777626735608,S009,2,50,1777626735578,1777626735602,1777626735608,message,1777626735438,0.027312099933624268,-0.0376051664352417,0.016342878341674805,-1.47151517868042,-0.3048797845840454,-0.19870948791503906
2026-05-01T09:12:15.608000+00:00,1777626735608,S009,2,50,1777626735578,1777626735602,1777626735608,message,1777626735458,0.010195136070251465,-0.07252076268196106,0.011398255825042725,-1.6151578426361084,-0.30087530612945557,-0.26611629128456116
2026-05-01T09:12:15.608000+00:00,1777626735608,S009,2,50,1777626735578,1777626735602,1777626735608,message,1777626735477,-0.005043506622314453,-0.055838823318481445,-0.06957846879959106,-1.5039244890213013,-0.21725910902023315,-0.3224974274635315
2026-05-01T09:12:15.608000+00:00,1777626735608,S009,2,50,1777626735578,1777626735602,1777626735608,message,1777626735498,-0.001991361379623413,-0.09461545944213867,-0.08315259218215942,-1.5663511753082275,-0.12243159115314484,-0.35713863372802734
2026-05-01T09:12:15.608000+00:00,1777626735608,S009,2,50,1777626735578,1777626735602,1777626735608,message,1777626735517,0.018662631511688232,-0.11299914121627808,-0.017020761966705322,-1.8060084581375122,-0.1204226166009903,-0.36618274450302124
2026-05-01T09:12:15.608000+00:00,1777626735608,S009,2,50,1777626735578,1777626735602,1777626735608,message,1777626735538,0.032708197832107544,-0.09087556600570679,-0.015905380249023438,-1.8340270519256592,-0.17157500982284546,-0.43669092655181885
2026-05-01T09:12:15.608000+00:00,1777626735608,S009,2,50,1777626735578,1777626735602,1777626735608,message,1777626735558,0.03934276103973389,-0.12444442510604858,0.014647066593170166,-1.9324958324432373,-0.27174636721611023,-0.503525972366333
2026-05-01T09:12:15.608000+00:00,1777626735608,S009,2,50,1777626735578,1777626735602,1777626735608,message,1777626735578,0.04437282681465149,-0.041730403900146484,0.07065838575363159,-1.9708597660064697,-0.3167019188404083,-0.495553582906723
2026-05-01T09:12:15.826000+00:00,1777626735826,S009,3,50,1777626735779,1777626735827,1777626735826,message,1777626735598,0.004904419183731079,0.05127507448196411,-0.06290990114212036,-1.778684139251709,-0.27214881777763367,-0.5326427817344666
2026-05-01T09:12:15.826000+00:00,1777626735826,S009,3,50,1777626735779,1777626735827,1777626735826,message,1777626735618,0.010373562574386597,0.04154157638549805,-0.11643010377883911,-1.549068570137024,-0.2341066151857376,-0.5239464044570923
2026-05-01T09:12:15.826000+00:00,1777626735826,S009,3,50,1777626735779,1777626735827,1777626735826,message,1777626735638,0.01783919334411621,-0.04222220182418823,-0.041463375091552734,-2.0069222450256348,-0.22708332538604736,-0.47627609968185425
2026-05-01T09:12:15.826000+00:00,1777626735826,S009,3,50,1777626735779,1777626735827,1777626735826,message,1777626735658,-0.005062609910964966,-0.0041533708572387695,-0.06633609533309937,-2.2910590171813965,-0.15287844836711884,-0.44289344549179077
2026-05-01T09:12:15.826000+00:00,1777626735826,S009,3,50,1777626735779,1777626735827,1777626735826,message,1777626735678,-0.03391227126121521,0.07849562168121338,-0.1460171937942505,-2.10453724861145,0.019443560391664505,-0.4109343886375427
2026-05-01T09:12:15.826000+00:00,1777626735826,S009,3,50,1777626735779,1777626735827,1777626735826,message,1777626735699,-0.03722444176673889,0.06424671411514282,-0.1607939600944519,-1.85444974899292,0.21585522592067719,-0.364305317401886
2026-05-01T09:12:15.826000+00:00,1777626735826,S009,3,50,1777626735779,1777626735827,1777626735826,message,1777626735718,-0.0372614860534668,-0.05375874042510986,-0.10612383484840393,-1.7705641984939575,0.30883124470710754,-0.36876657605171204
2026-05-01T09:12:15.826000+00:00,1777626735826,S009,3,50,1777626735779,1777626735827,1777626735826,message,1777626735739,-0.011966228485107422,-0.027521491050720215,-0.06297969818115234,-1.8555858135223389,0.32429468631744385,-0.3460179269313812
2026-05-01T09:12:15.826000+00:00,1777626735826,S009,3,50,1777626735779,1777626735827,1777626735826,message,1777626735759,0.012159615755081177,0.0204010009765625,-0.02284097671508789,-1.9617825746536255,0.2700757384300232,-0.33635568618774414
2026-05-01T09:12:15.826000+00:00,1777626735826,S009,3,50,1777626735779,1777626735827,1777626735826,message,1777626735779,0.023957639932632446,0.03538030385971069,-0.028663039207458496,-1.7340583801269531,0.17955675721168518,-0.3601149022579193
2026-05-01T09:12:15.978000+00:00,1777626735978,S009,4,50,1777626735980,1777626735971,1777626735978,message,1777626735799,0.021245121955871582,-0.010606825351715088,-0.059208959341049194,-1.577623724937439,0.163238987326622,-0.37389013171195984
2026-05-01T09:12:15.978000+00:00,1777626735978,S009,4,50,1777626735980,1777626735971,1777626735978,message,1777626735819,0.039865076541900635,0.04037827253341675,-0.05330938100814819,-1.2371625900268555,0.13447172939777374,-0.3768036365509033
2026-05-01T09:12:15.978000+00:00,1777626735978,S009,4,50,1777626735980,1777626735971,1777626735978,message,1777626735839,0.033945709466934204,-0.015057086944580078,0.0010763108730316162,-1.1453056335449219,0.11480972170829773,-0.36070531606674194
2026-05-01T09:12:15.978000+00:00,1777626735978,S009,4,50,1777626735980,1777626735971,1777626735978,message,1777626735859,0.03187933564186096,-0.0354459285736084,0.018911033868789673,-1.1192030906677246,0.07010453194379807,-0.3753388822078705
2026-05-01T09:12:15.978000+00:00,1777626735978,S009,4,50,1777626735980,1777626735971,1777626735978,message,1777626735880,0.039877742528915405,-0.038506507873535156,0.06371495127677917,-1.1300933361053467,-0.005646271165460348,-0.3814104497432709
2026-05-01T09:12:15.978000+00:00,1777626735978,S009,4,50,1777626735980,1777626735971,1777626735978,message,1777626735907,0.06178422272205353,0.0009216666221618652,0.07041651010513306,-0.9730710387229919,-0.0946277305483818,-0.38076257705688477
2026-05-01T09:12:15.978000+00:00,1777626735978,S009,4,50,1777626735980,1777626735971,1777626735978,message,1777626735919,0.03433883190155029,0.0226326584815979,0.02565377950668335,-0.48912402987480164,-0.14828810095787048,-0.3987669050693512
2026-05-01T09:12:15.978000+00:00,1777626735978,S009,4,50,1777626735980,1777626735971,1777626735978,message,1777626735940,0.014027103781700134,0.01980304718017578,0.025571122765541077,0.05943281948566437,-0.17764949798583984,-0.401837557554245
2026-05-01T09:12:15.978000+00:00,1777626735978,S009,4,50,1777626735980,1777626735971,1777626735978,message,1777626735960,0.025907233357429504,0.009146392345428467,0.034566640853881836,0.5141968727111816,-0.21645818650722504,-0.3850862383842468
2026-05-01T09:12:15.978000+00:00,1777626735978,S009,4,50,1777626735980,1777626735971,1777626735978,message,1777626735980,0.016325905919075012,-0.050421953201293945,0.06782209873199463,0.2981759011745453,-0.25624576210975647,-0.3413098454475403
2026-05-01T09:12:16.432000+00:00,1777626736432,S009,5,50,1777626736181,1777626736434,1777626736432,message,1777626736000,0.016842976212501526,0.01774698495864868,0.07241296768188477,0.1829821765422821,-0.3353665769100189,-0.3197452127933502
2026-05-01T09:12:16.432000+00:00,1777626736432,S009,5,50,1777626736181,1777626736434,1777626736432,message,1777626736021,0.018338099122047424,0.020429491996765137,-0.0004235208034515381,0.2806168794631958,-0.33530300855636597,-0.2815457582473755
2026-05-01T09:12:16.432000+00:00,1777626736432,S009,5,50,1777626736181,1777626736434,1777626736432,message,1777626736040,-0.014595523476600647,-0.018215715885162354,-0.025310665369033813,0.34893012046813965,-0.24395519495010376,-0.23056238889694214
2026-05-01T09:12:16.432000+00:00,1777626736432,S009,5,50,1777626736181,1777626736434,1777626736432,message,1777626736060,-0.028406202793121338,0.01313483715057373,-0.08451658487319946,0.45843133330345154,-0.1271318793296814,-0.1946672797203064
2026-05-01T09:12:16.432000+00:00,1777626736432,S009,5,50,1777626736181,1777626736434,1777626736432,message,1777626736080,-0.018760651350021362,0.07991260290145874,-0.06799569725990295,0.5974510312080383,-0.07743459194898605,-0.1170516386628151
2026-05-01T09:12:16.432000+00:00,1777626736432,S009,5,50,1777626736181,1777626736434,1777626736432,message,1777626736100,-0.01165144145488739,0.061413705348968506,0.010979771614074707,0.7119581699371338,-0.028709931299090385,-0.11077659577131271
2026-05-01T09:12:16.432000+00:00,1777626736432,S009,5,50,1777626736181,1777626736434,1777626736432,message,1777626736121,-0.033536672592163086,-0.02789318561553955,-0.01640835404396057,0.6754888296127319,0.06690271943807602,-0.14311721920967102
2026-05-01T09:12:16.432000+00:00,1777626736432,S009,5,50,1777626736181,1777626736434,1777626736432,message,1777626736141,-0.03647582232952118,-0.055427491664886475,-0.009880930185317993,0.4258962869644165,0.135390505194664,-0.1667061150074005
2026-05-01T09:12:16.432000+00:00,1777626736432,S009,5,50,1777626736181,1777626736434,1777626736432,message,1777626736161,-0.03667730093002319,0.025019943714141846,-0.01817604899406433,0.21901369094848633,0.2075238674879074,-0.13841892778873444
2026-05-01T09:12:16.432000+00:00,1777626736432,S009,5,50,1777626736181,1777626736434,1777626736432,message,1777626736180,-0.025357544422149658,0.02517646551132202,-0.008514106273651123,-0.05246362090110779,0.22109690308570862,-0.07538451254367828
2026-05-01T09:12:16.521000+00:00,1777626736521,S009,6,50,1777626736382,1777626736496,1777626736521,message,1777626736201,0.012047231197357178,0.11924201250076294,-0.005882203578948975,-0.012535381130874157,0.19732046127319336,-0.03126094117760658
2026-05-01T09:12:16.521000+00:00,1777626736521,S009,6,50,1777626736382,1777626736496,1777626736521,message,1777626736225,0.029416412115097046,0.04951971769332886,-0.004386961460113525,0.060323648154735565,0.156439870595932,-0.020138517022132874
2026-05-01T09:12:16.521000+00:00,1777626736521,S009,6,50,1777626736382,1777626736496,1777626736521,message,1777626736241,0.07331246137619019,0.014401614665985107,-0.009862571954727173,0.11181160062551498,0.11366753280162811,-0.014429284259676933
2026-05-01T09:12:16.521000+00:00,1777626736521,S009,6,50,1777626736382,1777626736496,1777626736521,message,1777626736260,0.1048201471567154,0.05624508857727051,-0.01889359951019287,0.20785504579544067,0.07199568301439285,0.03986687213182449
2026-05-01T09:12:16.521000+00:00,1777626736521,S009,6,50,1777626736382,1777626736496,1777626736521,message,1777626736281,0.07477937638759613,0.047921597957611084,-0.011245906352996826,0.34378278255462646,0.04846927896142006,0.05525067076086998
2026-05-01T09:12:16.521000+00:00,1777626736521,S009,6,50,1777626736382,1777626736496,1777626736521,message,1777626736301,0.05825793743133545,0.006781160831451416,-0.015297085046768188,0.4575554132461548,0.02005585841834545,0.0601404532790184
2026-05-01T09:12:16.521000+00:00,1777626736521,S009,6,50,1777626736382,1777626736496,1777626736521,message,1777626736323,0.024015620350837708,-0.009783565998077393,0.002527683973312378,0.4409056007862091,-0.023352183401584625,0.052911195904016495
2026-05-01T09:12:16.521000+00:00,1777626736521,S009,6,50,1777626736382,1777626736496,1777626736521,message,1777626736342,0.02169497311115265,-0.03380751609802246,0.02547779679298401,0.34634023904800415,-0.04608119651675224,0.020986177027225494
2026-05-01T09:12:16.521000+00:00,1777626736521,S009,6,50,1777626736382,1777626736496,1777626736521,message,1777626736361,0.0075343698263168335,-0.02959299087524414,0.024563759565353394,0.17207707464694977,-0.025710832327604294,0.009612135589122772
2026-05-01T09:12:16.521000+00:00,1777626736521,S009,6,50,1777626736382,1777626736496,1777626736521,message,1777626736382,0.029286816716194153,0.03651285171508789,0.039265185594558716,-0.022792279720306396,-0.06663680076599121,0.03877774626016617
2026-05-01T09:12:16.898000+00:00,1777626736898,S009,7,50,1777626736583,1777626736891,1777626736898,message,1777626736402,0.02366030216217041,0.07701462507247925,0.047368407249450684,0.12195319682359695,-0.07950561493635178,0.06608942151069641
2026-05-01T09:12:16.898000+00:00,1777626736898,S009,7,50,1777626736583,1777626736891,1777626736898,message,1777626736423,-0.013153880834579468,-0.028509557247161865,-0.08113884925842285,0.5532108545303345,0.051391638815402985,0.06156636029481888
2026-05-01T09:12:16.898000+00:00,1777626736898,S009,7,50,1777626736583,1777626736891,1777626736898,message,1777626736442,-0.03607206046581268,-0.05865645408630371,-0.08920860290527344,0.30293843150138855,0.1369483917951584,0.1475738286972046
2026-05-01T09:12:16.898000+00:00,1777626736898,S009,7,50,1777626736583,1777626736891,1777626736898,message,1777626736462,-0.02457776665687561,0.005565524101257324,-0.013573110103607178,0.0009159799665212631,0.14380359649658203,0.16068793833255768
2026-05-01T09:12:16.898000+00:00,1777626736898,S009,7,50,1777626736583,1777626736891,1777626736898,message,1777626736482,-0.010431349277496338,0.00602489709854126,0.02320656180381775,-0.06458260118961334,0.17114394903182983,0.1623280644416809
2026-05-01T09:12:16.898000+00:00,1777626736898,S009,7,50,1777626736583,1777626736891,1777626736898,message,1777626736502,-0.03315259516239166,-0.07171010971069336,-0.0445975661277771,-0.19715076684951782,0.23958756029605865,0.10361123085021973
2026-05-01T09:12:16.898000+00:00,1777626736898,S009,7,50,1777626736583,1777626736891,1777626736898,message,1777626736523,-0.022912710905075073,-0.06755101680755615,-0.004880070686340332,-0.48361796140670776,0.24730418622493744,0.0747876763343811
2026-05-01T09:12:16.898000+00:00,1777626736898,S009,7,50,1777626736583,1777626736891,1777626736898,message,1777626736542,-0.0042829811573028564,-0.01968926191329956,-0.010477334260940552,-0.5543352365493774,0.2063744068145752,0.04250915348529816
2026-05-01T09:12:16.898000+00:00,1777626736898,S009,7,50,1777626736583,1777626736891,1777626736898,message,1777626736565,0.0007378756999969482,-0.06526011228561401,0.02710062265396118,-0.598074734210968,0.15273386240005493,-0.015444162301719189
2026-05-01T09:12:16.898000+00:00,1777626736898,S009,7,50,1777626736583,1777626736891,1777626736898,message,1777626736583,-0.005513295531272888,-0.04393208026885986,0.02932572364807129,-0.5162648558616638,0.10521019995212555,-0.06933285295963287
2026-05-01T09:12:17.005000+00:00,1777626737005,S009,8,50,1777626736784,1777626737006,1777626737005,message,1777626736603,-0.017995864152908325,-0.03546947240829468,0.0032758116722106934,-0.4030895531177521,0.07636760175228119,-0.12103434652090073
2026-05-01T09:12:17.005000+00:00,1777626737005,S009,8,50,1777626736784,1777626737006,1777626737005,message,1777626736622,-0.02993243932723999,-0.032825469970703125,-0.04259616136550903,-0.3822662830352783,0.08161060512065887,-0.13726136088371277
2026-05-01T09:12:17.005000+00:00,1777626737005,S009,8,50,1777626736784,1777626737006,1777626737005,message,1777626736643,-0.01794607937335968,0.023343443870544434,-0.057092875242233276,-0.3299410343170166,0.04173802584409714,-0.14161455631256104
2026-05-01T09:12:17.005000+00:00,1777626737005,S009,8,50,1777626736784,1777626737006,1777626737005,message,1777626736663,0.012538895010948181,0.027881383895874023,0.03996652364730835,-0.2904093265533447,-0.028619345277547836,-0.16621823608875275
2026-05-01T09:12:17.005000+00:00,1777626737005,S009,8,50,1777626736784,1777626737006,1777626737005,message,1777626736685,0.009215638041496277,0.04128199815750122,0.05829232931137085,-0.08580080419778824,-0.035606756806373596,-0.19461584091186523
2026-05-01T09:12:17.005000+00:00,1777626737005,S009,8,50,1777626736784,1777626737006,1777626737005,message,1777626736703,-0.007389962673187256,0.006851553916931152,-0.007156163454055786,0.1219092458486557,-0.00898454338312149,-0.17992733418941498
2026-05-01T09:12:17.005000+00:00,1777626737005,S009,8,50,1777626736784,1777626737006,1777626737005,message,1777626736724,-0.009788155555725098,0.060949087142944336,-0.00809285044670105,0.22070959210395813,0.01870548352599144,-0.10982003808021545
2026-05-01T09:12:17.005000+00:00,1777626737005,S009,8,50,1777626736784,1777626737006,1777626737005,message,1777626736743,-0.0076057761907577515,0.014727473258972168,-0.0022716224193573,0.08473125100135803,0.03706596419215202,-0.053742922842502594
2026-05-01T09:12:17.005000+00:00,1777626737005,S009,8,50,1777626736784,1777626737006,1777626737005,message,1777626736763,0.007357761263847351,0.023588359355926514,0.0002136528491973877,0.09651707112789154,0.04119184613227844,-0.023017339408397675
2026-05-01T09:12:17.005000+00:00,1777626737005,S009,8,50,1777626736784,1777626737006,1777626737005,message,1777626736784,-0.0010307878255844116,-0.014562904834747314,0.019240081310272217,0.1167760044336319,0.034369096159935,-0.03229296952486038
2026-05-01T09:12:17.059000+00:00,1777626737059,S009,9,50,1777626736985,1777626737061,1777626737059,message,1777626736804,-0.012461274862289429,-0.06173509359359741,0.028095096349716187,-0.0012728720903396606,0.036458954215049744,-0.06366516649723053
2026-05-01T09:12:17.059000+00:00,1777626737059,S009,9,50,1777626736985,1777626737061,1777626737059,message,1777626736824,-0.01690688729286194,-0.017081797122955322,0.02755996584892273,0.013316988945007324,0.024175044149160385,-0.08977783471345901
2026-05-01T09:12:17.059000+00:00,1777626737059,S009,9,50,1777626736985,1777626737061,1777626737059,message,1777626736844,-0.00467352569103241,-0.019423246383666992,0.013426780700683594,0.06818662583827972,-0.022097378969192505,-0.10519370436668396
2026-05-01T09:12:17.059000+00:00,1777626737059,S009,9,50,1777626736985,1777626737061,1777626737059,message,1777626736864,-0.015101999044418335,0.04532778263092041,-0.007962405681610107,0.22237832844257355,-0.07802943140268326,-0.08484140038490295
2026-05-01T09:12:17.059000+00:00,1777626737059,S009,9,50,1777626736985,1777626737061,1777626737059,message,1777626736884,-0.009864762425422668,0.07642900943756104,-0.029439270496368408,0.43915432691574097,-0.11286284774541855,-0.09013108164072037
2026-05-01T09:12:17.059000+00:00,1777626737059,S009,9,50,1777626736985,1777626737061,1777626737059,message,1777626736904,-0.004434481263160706,-0.014850258827209473,-0.03547018766403198,0.4959867000579834,-0.09861345589160919,-0.09534245729446411
2026-05-01T09:12:17.059000+00:00,1777626737059,S009,9,50,1777626736985,1777626737061,1777626737059,message,1777626736924,-0.0292767733335495,-0.06479084491729736,-0.02965068817138672,0.256388783454895,-0.021744433790445328,-0.12614910304546356
2026-05-01T09:12:17.059000+00:00,1777626737059,S009,9,50,1777626736985,1777626737061,1777626737059,message,1777626736944,-0.015663892030715942,-0.06923872232437134,-0.05223527550697327,-0.10212598741054535,0.05825509876012802,-0.09311088919639587
2026-05-01T09:12:17.059000+00:00,1777626737059,S009,9,50,1777626736985,1777626737061,1777626737059,message,1777626736964,-0.011489912867546082,0.00887984037399292,-0.07428902387619019,-0.00915130227804184,0.13950753211975098,-0.06073233485221863
2026-05-01T09:12:17.059000+00:00,1777626737059,S009,9,50,1777626736985,1777626737061,1777626737059,message,1777626736984,0.006215140223503113,0.04997795820236206,-0.03187137842178345,0.20688246190547943,0.14566612243652344,-0.04357438534498215
2026-05-01T09:12:17.260000+00:00,1777626737260,S009,10,50,1777626737186,1777626737249,1777626737260,message,1777626737005,-0.0020737051963806152,0.01832526922225952,0.036479651927948,0.20980314910411835,0.11379943042993546,-0.009599482640624046
2026-05-01T09:12:17.260000+00:00,1777626737260,S009,10,50,1777626737186,1777626737249,1777626737260,message,1777626737025,0.01607625186443329,0.05358529090881348,0.03397902846336365,0.17729873955249786,0.07890083640813828,-0.0027887141332030296
2026-05-01T09:12:17.260000+00:00,1777626737260,S009,10,50,1777626737186,1777626737249,1777626737260,message,1777626737045,0.010018706321716309,0.01992785930633545,0.001822739839553833,0.21561123430728912,0.14177066087722778,-0.002435206202790141
2026-05-01T09:12:17.260000+00:00,1777626737260,S009,10,50,1777626737186,1777626737249,1777626737260,message,1777626737064,0.00558510422706604,-0.05748182535171509,-0.026408493518829346,0.14324329793453217,0.1877346783876419,0.000870309304445982
2026-05-01T09:12:17.260000+00:00,1777626737260,S009,10,50,1777626737186,1777626737249,1777626737260,message,1777626737085,0.0010419189929962158,-0.027034223079681396,0.053828150033950806,-0.11063504964113235,0.16136406362056732,0.04177007079124451
2026-05-01T09:12:17.260000+00:00,1777626737260,S009,10,50,1777626737186,1777626737249,1777626737260,message,1777626737105,0.0028740763664245605,0.02262336015701294,0.05550810694694519,-0.11368943005800247,0.07056118547916412,0.032078295946121216
2026-05-01T09:12:17.260000+00:00,1777626737260,S009,10,50,1777626737186,1777626737249,1777626737260,message,1777626737125,0.014614492654800415,0.04716867208480835,0.07815954089164734,0.036723244935274124,-0.04131341725587845,0.04307315871119499
2026-05-01T09:12:17.260000+00:00,1777626737260,S009,10,50,1777626737186,1777626737249,1777626737260,message,1777626737145,0.004721224308013916,0.027720868587493896,0.06812217831611633,0.12583953142166138,-0.15902811288833618,0.04722662270069122
2026-05-01T09:12:17.260000+00:00,1777626737260,S009,10,50,1777626737186,1777626737249,1777626737260,message,1777626737165,0.006167218089103699,0.01449662446975708,0.04268494248390198,0.23626510798931122,-0.24409601092338562,0.026364963501691818
2026-05-01T09:12:17.260000+00:00,1777626737260,S009,10,50,1777626737186,1777626737249,1777626737260,message,1777626737185,0.016895845532417297,0.021344423294067383,0.03139990568161011,0.3500279188156128,-0.338909775018692,0.010185088030993938
2026-05-01T09:12:17.466000+00:00,1777626737466,S009,11,50,1777626737387,1777626737466,1777626737466,message,1777626737207,0.01767227053642273,0.019814610481262207,-0.03252342343330383,0.3823933005332947,-0.30880582332611084,0.011128486134111881
2026-05-01T09:12:17.466000+00:00,1777626737466,S009,11,50,1777626737387,1777626737466,1777626737466,message,1777626737226,0.008207067847251892,0.034899115562438965,-0.08504101634025574,0.3192500174045563,-0.22295480966567993,0.030467243865132332
2026-05-01T09:12:17.466000+00:00,1777626737466,S009,11,50,1777626737387,1777626737466,1777626737466,message,1777626737246,-0.0021369606256484985,0.010562717914581299,-0.07537561655044556,0.2915661931037903,-0.13899461925029755,0.05577387660741806
2026-05-01T09:12:17.466000+00:00,1777626737466,S009,11,50,1777626737387,1777626737466,1777626737466,message,1777626737266,0.016047775745391846,-0.034344494342803955,-0.047478318214416504,0.5926298499107361,-0.14734338223934174,0.07103751599788666
2026-05-01T09:12:17.466000+00:00,1777626737466,S009,11,50,1777626737387,1777626737466,1777626737466,message,1777626737294,0.016370415687561035,0.002217411994934082,0.010102689266204834,0.5781875848770142,-0.1419648826122284,0.10525093972682953
2026-05-01T09:12:17.466000+00:00,1777626737466,S009,11,50,1777626737387,1777626737466,1777626737466,message,1777626737309,0.030996173620224,0.029230594635009766,0.00597873330116272,0.4769728183746338,-0.12747691571712494,0.10789129883050919
2026-05-01T09:12:17.466000+00:00,1777626737466,S009,11,50,1777626737387,1777626737466,1777626737466,message,1777626737326,0.05610191822052002,0.05805039405822754,-0.013256102800369263,0.564009428024292,-0.08931107819080353,0.1564163863658905
2026-05-01T09:12:17.466000+00:00,1777626737466,S009,11,50,1777626737387,1777626737466,1777626737466,message,1777626737346,0.028396889567375183,-0.002545177936553955,-0.05502277612686157,0.8072066307067871,-0.009615826420485973,0.12066339701414108
2026-05-01T09:12:17.466000+00:00,1777626737466,S009,11,50,1777626737387,1777626737466,1777626737466,message,1777626737366,0.010626718401908875,0.008052170276641846,-0.013355493545532227,0.9810184240341187,0.01451111864298582,0.10819511860609055
2026-05-01T09:12:17.466000+00:00,1777626737466,S009,11,50,1777626737387,1777626737466,1777626737466,message,1777626737386,0.01699228584766388,0.019729435443878174,0.0630611777305603,0.7787669897079468,-0.01635587029159069,0.13912129402160645
2026-05-01T09:12:17.639000+00:00,1777626737639,S009,12,50,1777626737587,1777626737635,1777626737639,message,1777626737407,-0.01167207956314087,-0.11312824487686157,0.08349215984344482,0.2174307107925415,-0.03891124576330185,0.1331697553396225
2026-05-01T09:12:17.639000+00:00,1777626737639,S009,12,50,1777626737587,1777626737635,1777626737639,message,1777626737426,-0.012388467788696289,-0.002141237258911133,0.03055363893508911,-0.027549218386411667,-0.07086236774921417,0.15606985986232758
2026-05-01T09:12:17.639000+00:00,1777626737639,S009,12,50,1777626737587,1777626737635,1777626737639,message,1777626737446,-0.031525999307632446,0.07602542638778687,0.03567075729370117,0.1647922694683075,-0.11086202412843704,0.1493746042251587
2026-05-01T09:12:17.639000+00:00,1777626737639,S009,12,50,1777626737587,1777626737635,1777626737639,message,1777626737466,-0.017838865518569946,0.01557159423828125,0.08324217796325684,0.14218096435070038,-0.18411827087402344,0.16506974399089813
2026-05-01T09:12:17.639000+00:00,1777626737639,S009,12,50,1777626737587,1777626737635,1777626737639,message,1777626737487,-0.009148627519607544,-0.034169793128967285,0.06873360276222229,0.05704822763800621,-0.2685413956642151,0.16303081810474396
2026-05-01T09:12:17.639000+00:00,1777626737639,S009,12,50,1777626737587,1777626737635,1777626737639,message,1777626737508,-0.04445803165435791,-0.014642298221588135,0.022258132696151733,0.17406246066093445,-0.2574789524078369,0.15093223750591278
2026-05-01T09:12:17.639000+00:00,1777626737639,S009,12,50,1777626737587,1777626737635,1777626737639,message,1777626737527,-0.050477445125579834,0.01670128107070923,-0.0308724045753479,0.3566399812698364,-0.19267763197422028,0.13044635951519012
2026-05-01T09:12:17.639000+00:00,1777626737639,S009,12,50,1777626737587,1777626737635,1777626737639,message,1777626737547,-0.06955523788928986,-0.003975868225097656,-0.06269955635070801,0.4906902313232422,-0.11992669850587845,0.09877733141183853
2026-05-01T09:12:17.639000+00:00,1777626737639,S009,12,50,1777626737587,1777626737635,1777626737639,message,1777626737567,-0.06295593082904816,-0.01981675624847412,-0.0048302412033081055,0.4712270200252533,-0.07779568433761597,0.07210007309913635
2026-05-01T09:12:17.639000+00:00,1777626737639,S009,12,50,1777626737587,1777626737635,1777626737639,message,1777626737587,-0.058369994163513184,-0.04571664333343506,-0.008613526821136475,0.3125756084918976,-0.05678006634116173,0.07271600514650345
2026-05-01T09:12:17.966000+00:00,1777626737966,S009,13,50,1777626737789,1777626737895,1777626737966,message,1777626737610,-0.038645848631858826,-0.011866569519042969,-0.014648139476776123,0.32870370149612427,-0.04013839364051819,0.03907543048262596
2026-05-01T09:12:17.966000+00:00,1777626737966,S009,13,50,1777626737789,1777626737895,1777626737966,message,1777626737627,-0.023878589272499084,-0.003100275993347168,-0.00398409366607666,0.4480005204677582,-0.03457774966955185,-0.0035316830035299063
2026-05-01T09:12:17.966000+00:00,1777626737966,S009,13,50,1777626737789,1777626737895,1777626737966,message,1777626737647,-0.013913661241531372,-0.02361619472503662,-0.03470271825790405,0.5075120329856873,-0.03878873959183693,-0.06391891837120056
2026-05-01T09:12:17.966000+00:00,1777626737966,S009,13,50,1777626737789,1777626737895,1777626737966,message,1777626737667,-0.047110721468925476,-0.023658454418182373,-0.027241647243499756,0.1704525500535965,0.12774701416492462,-0.05473228543996811
2026-05-01T09:12:17.966000+00:00,1777626737966,S009,13,50,1777626737789,1777626737895,1777626737966,message,1777626737688,-0.029832065105438232,-0.048092782497406006,-0.08752739429473877,-0.11376532912254333,0.21505692601203918,-0.09427862614393234
2026-05-01T09:12:17.966000+00:00,1777626737966,S009,13,50,1777626737789,1777626737895,1777626737966,message,1777626737708,0.04672481119632721,0.030619025230407715,-0.020100414752960205,-0.12211034446954727,0.1416739821434021,-0.04836967587471008
2026-05-01T09:12:17.966000+00:00,1777626737966,S009,13,50,1777626737789,1777626737895,1777626737966,message,1777626737728,0.004906877875328064,-0.045592546463012695,0.01217043399810791,-0.02479231357574463,0.0763925239443779,-0.07887826859951019
2026-05-01T09:12:17.966000+00:00,1777626737966,S009,13,50,1777626737789,1777626737895,1777626737966,message,1777626737748,0.00938384234905243,-0.0725439190864563,0.027121305465698242,-0.10509141534566879,0.07619106769561768,-0.11022063344717026
2026-05-01T09:12:17.966000+00:00,1777626737966,S009,13,50,1777626737789,1777626737895,1777626737966,message,1777626737768,0.011099666357040405,-0.007772564888000488,0.024314284324645996,-0.3031134009361267,0.10077536106109619,-0.1169942244887352
2026-05-01T09:12:17.966000+00:00,1777626737966,S009,13,50,1777626737789,1777626737895,1777626737966,message,1777626737788,0.028627589344978333,0.013417184352874756,-3.612041473388672e-05,-0.35065776109695435,0.0807749480009079,-0.11194891482591629
2026-05-01T09:12:18.066000+00:00,1777626738066,S009,14,50,1777626737989,1777626738018,1777626738066,message,1777626737809,0.03479224443435669,0.0014545321464538574,0.06909507513046265,-0.3957384526729584,-0.016167355701327324,-0.11796180158853531
2026-05-01T09:12:18.066000+00:00,1777626738066,S009,14,50,1777626737989,1777626738018,1777626738066,message,1777626737828,0.06620551645755768,0.03062993288040161,0.08465296030044556,-0.3089342713356018,-0.17957746982574463,-0.060261063277721405
2026-05-01T09:12:18.066000+00:00,1777626738066,S009,14,50,1777626737989,1777626738018,1777626738066,message,1777626737848,0.03678955137729645,0.013427436351776123,-0.03891909122467041,-0.13803444802761078,-0.2706962823867798,-0.08306863903999329
2026-05-01T09:12:18.066000+00:00,1777626738066,S009,14,50,1777626737989,1777626738018,1777626738066,message,1777626737869,-0.0163632333278656,-0.026497244834899902,-0.0015439391136169434,-0.0017288047820329666,-0.28039300441741943,-0.14540717005729675
2026-05-01T09:12:18.066000+00:00,1777626738066,S009,14,50,1777626737989,1777626738018,1777626738066,message,1777626737889,-0.030904576182365417,0.03562617301940918,-0.07421326637268066,0.048295214772224426,-0.24194326996803284,-0.10894071310758591
2026-05-01T09:12:18.066000+00:00,1777626738066,S009,14,50,1777626737989,1777626738018,1777626738066,message,1777626737909,-0.03796909749507904,0.08057129383087158,-0.11996686458587646,0.3606395125389099,-0.1570276916027069,-0.10470415651798248
2026-05-01T09:12:18.066000+00:00,1777626738066,S009,14,50,1777626737989,1777626738018,1777626738066,message,1777626737929,0.010327383875846863,-0.03679400682449341,0.020665526390075684,0.1396794468164444,-0.11832663416862488,-0.030063850805163383
2026-05-01T09:12:18.066000+00:00,1777626738066,S009,14,50,1777626737989,1777626738018,1777626738066,message,1777626737949,-0.022917985916137695,0.03939622640609741,-0.0006380677223205566,0.20750217139720917,-0.0618114247918129,-0.06353727728128433
2026-05-01T09:12:18.066000+00:00,1777626738066,S009,14,50,1777626737989,1777626738018,1777626738066,message,1777626737969,-0.021393075585365295,-0.02044844627380371,-0.04289013147354126,0.12903453409671783,-0.0653780847787857,-0.036737944930791855
2026-05-01T09:12:18.066000+00:00,1777626738066,S009,14,50,1777626737989,1777626738018,1777626738066,message,1777626737989,0.013860508799552917,0.07234442234039307,-0.02914416790008545,0.3727438747882843,-0.06406053900718689,-0.014656558632850647
2026-05-01T09:12:18.212000+00:00,1777626738212,S009,15,50,1777626738193,1777626738208,1777626738212,message,1777626738009,-0.0003860294818878174,0.017030775547027588,-0.009990096092224121,0.3370082378387451,-0.055391836911439896,0.037939541041851044
2026-05-01T09:12:18.212000+00:00,1777626738212,S009,15,50,1777626738193,1777626738208,1777626738212,message,1777626738029,0.009463906288146973,0.006264626979827881,0.07450759410858154,0.17086081206798553,-0.04364969581365585,0.06721125543117523
2026-05-01T09:12:18.212000+00:00,1777626738212,S009,15,50,1777626738193,1777626738208,1777626738212,message,1777626738049,-0.0262061208486557,-0.022698819637298584,0.014244914054870605,-0.011508997529745102,0.039052415639162064,0.06805147975683212
2026-05-01T09:12:18.212000+00:00,1777626738212,S009,15,50,1777626738193,1777626738208,1777626738212,message,1777626738069,-0.03151161968708038,-0.007320523262023926,-0.036409616470336914,-0.19695955514907837,0.1476353406906128,0.11208663135766983
2026-05-01T09:12:18.212000+00:00,1777626738212,S009,15,50,1777626738193,1777626738208,1777626738212,message,1777626738095,-0.03944145143032074,0.013257920742034912,-0.05108058452606201,-0.2575001120567322,0.2476900815963745,0.14117079973220825
2026-05-01T09:12:18.212000+00:00,1777626738212,S009,15,50,1777626738193,1777626738208,1777626738212,message,1777626738111,-0.0026278644800186157,-0.06566357612609863,0.018283486366271973,-0.6304057836532593,0.27250486612319946,0.13845092058181763
2026-05-01T09:12:18.212000+00:00,1777626738212,S009,15,50,1777626738193,1777626738208,1777626738212,message,1777626738130,-0.003887757658958435,-0.09443241357803345,0.0714266300201416,-0.8810747265815735,0.2843676805496216,0.09675848484039307
2026-05-01T09:12:18.212000+00:00,1777626738212,S009,15,50,1777626738193,1777626738208,1777626738212,message,1777626738150,-0.007642194628715515,-0.07719284296035767,0.03047621250152588,-0.8645613193511963,0.2593807876110077,0.03827318176627159
2026-05-01T09:12:18.212000+00:00,1777626738212,S009,15,50,1777626738193,1777626738208,1777626738212,message,1777626738170,0.01776812970638275,-0.01828986406326294,0.02053651213645935,-0.663601815700531,0.20929741859436035,0.027548259124159813
2026-05-01T09:12:18.212000+00:00,1777626738212,S009,15,50,1777626738193,1777626738208,1777626738212,message,1777626738192,0.029808253049850464,0.03151959180831909,0.022987008094787598,-0.48889315128326416,0.17853234708309174,0.03450576961040497
2026-05-01T09:12:18.499000+00:00,1777626738499,S009,16,50,1777626738392,1777626738499,1777626738499,message,1777626738211,-0.0028736889362335205,-0.042587876319885254,0.01891767978668213,-0.6245076656341553,0.18003752827644348,0.022746047005057335
2026-05-01T09:12:18.499000+00:00,1777626738499,S009,16,50,1777626738392,1777626738499,1777626738499,message,1777626738230,-0.016888335347175598,-0.05343979597091675,0.03463256359100342,-0.6812466382980347,0.14913125336170197,-0.04127677157521248
2026-05-01T09:12:18.499000+00:00,1777626738499,S009,16,50,1777626738392,1777626738499,1777626738499,message,1777626738250,-0.034406378865242004,-0.06449639797210693,0.025304019451141357,-0.8157737851142883,0.14142771065235138,-0.10169585049152374
2026-05-01T09:12:18.499000+00:00,1777626738499,S009,16,50,1777626738392,1777626738499,1777626738499,message,1777626738270,-0.06236279010772705,-0.027247309684753418,-0.11246609687805176,-0.3771389126777649,0.1500988006591797,-0.11509107798337936
2026-05-01T09:12:18.499000+00:00,1777626738499,S009,16,50,1777626738392,1777626738499,1777626738499,message,1777626738291,-0.05269463360309601,0.0545009970664978,-0.23775118589401245,-0.13504691421985626,0.2042817771434784,-0.09140917658805847
2026-05-01T09:12:18.499000+00:00,1777626738499,S009,16,50,1777626738392,1777626738499,1777626738499,message,1777626738311,0.03703303635120392,0.18138140439987183,-0.011924266815185547,-0.09324993193149567,0.17094960808753967,-0.004538890440016985
2026-05-01T09:12:18.499000+00:00,1777626738499,S009,16,50,1777626738392,1777626738499,1777626738499,message,1777626738330,0.07173682749271393,0.05023658275604248,0.013009458780288696,0.15206103026866913,0.0753236785531044,-0.01760089583694935
2026-05-01T09:12:18.499000+00:00,1777626738499,S009,16,50,1777626738392,1777626738499,1777626738499,message,1777626738351,0.018254444003105164,-0.08559483289718628,0.06945058703422546,-0.12203950434923172,0.06788904964923859,-0.029837429523468018
2026-05-01T09:12:18.499000+00:00,1777626738499,S009,16,50,1777626738392,1777626738499,1777626738499,message,1777626738371,-0.001583382487297058,-0.025903820991516113,0.01765701174736023,-0.26315560936927795,0.07253675907850266,-0.0285116545855999
2026-05-01T09:12:18.499000+00:00,1777626738499,S009,16,50,1777626738392,1777626738499,1777626738499,message,1777626738391,0.01700761914253235,0.018143117427825928,0.031189024448394775,-0.18408317863941193,0.01803474687039852,-0.01674373261630535
2026-05-01T09:12:18.655000+00:00,1777626738655,S009,17,50,1777626738593,1777626738619,1777626738655,message,1777626738411,0.029467478394508362,0.0004749894142150879,0.04671508073806763,-0.008543301373720169,-0.04768122360110283,-0.02791244350373745
2026-05-01T09:12:18.655000+00:00,1777626738655,S009,17,50,1777626738593,1777626738619,1777626738655,message,1777626738431,0.020838096737861633,0.011191129684448242,0.028908640146255493,0.025101741775870323,-0.0886307880282402,0.027030061930418015
2026-05-01T09:12:18.655000+00:00,1777626738655,S009,17,50,1777626738593,1777626738619,1777626738655,message,1777626738451,0.030508100986480713,0.031407058238983154,0.03796541690826416,0.07434065639972687,-0.0709676742553711,0.007902120240032673
2026-05-01T09:12:18.655000+00:00,1777626738655,S009,17,50,1777626738593,1777626738619,1777626738655,message,1777626738471,0.030421346426010132,0.01591014862060547,0.006651937961578369,0.0550101064145565,-0.08043444901704788,0.03699566051363945
2026-05-01T09:12:18.655000+00:00,1777626738655,S009,17,50,1777626738593,1777626738619,1777626738655,message,1777626738492,0.042735397815704346,0.018330156803131104,0.057063013315200806,0.20074468851089478,-0.1417883187532425,0.026389092206954956
2026-05-01T09:12:18.655000+00:00,1777626738655,S009,17,50,1777626738593,1777626738619,1777626738655,message,1777626738512,-0.0009825080633163452,-0.02285069227218628,0.024953484535217285,0.17873896658420563,-0.23350238800048828,-0.013391876593232155
2026-05-01T09:12:18.655000+00:00,1777626738655,S009,17,50,1777626738593,1777626738619,1777626738655,message,1777626738531,0.020974427461624146,0.008145511150360107,0.0019970834255218506,0.5369479656219482,-0.39429977536201477,-0.06918936222791672
2026-05-01T09:12:18.655000+00:00,1777626738655,S009,17,50,1777626738593,1777626738619,1777626738655,message,1777626738552,-0.023558497428894043,0.01709115505218506,0.032504916191101074,0.9036197662353516,-0.45830434560775757,-0.10950152575969696
2026-05-01T09:12:18.655000+00:00,1777626738655,S009,17,50,1777626738593,1777626738619,1777626738655,message,1777626738572,-0.04164879024028778,0.023527979850769043,-0.018995702266693115,0.6382303833961487,-0.3519097864627838,-0.09277772903442383
2026-05-01T09:12:18.655000+00:00,1777626738655,S009,17,50,1777626738593,1777626738619,1777626738655,message,1777626738593,-0.036207154393196106,-0.015883684158325195,-0.06812065839767456,0.17458178102970123,-0.20256999135017395,-0.07055993378162384
2026-05-01T09:12:18.959000+00:00,1777626738959,S009,18,50,1777626738796,1777626738935,1777626738959,message,1777626738612,0.0034034252166748047,-0.0359804630279541,-0.04171788692474365,0.09818500280380249,-0.1518521010875702,-0.012310206890106201
2026-05-01T09:12:18.959000+00:00,1777626738959,S009,18,50,1777626738796,1777626738935,1777626738959,message,1777626738632,-0.040981724858284,0.008242547512054443,-0.041875213384628296,0.30580076575279236,-0.12564246356487274,-0.0849069133400917
2026-05-01T09:12:18.959000+00:00,1777626738959,S009,18,50,1777626738796,1777626738935,1777626738959,message,1777626738652,-0.037585288286209106,-0.03492176532745361,-0.0028653740882873535,0.3310358226299286,-0.14497022330760956,-0.09778095036745071
2026-05-01T09:12:18.959000+00:00,1777626738959,S009,18,50,1777626738796,1777626738935,1777626738959,message,1777626738672,-0.01217159628868103,0.05838882923126221,-0.04845708608627319,0.48339930176734924,-0.15784037113189697,-0.08627492934465408
2026-05-01T09:12:18.959000+00:00,1777626738959,S009,18,50,1777626738796,1777626738935,1777626738959,message,1777626738694,-0.0012887269258499146,0.0014957785606384277,0.020904630422592163,0.44508785009384155,-0.14779645204544067,-0.07735274732112885
2026-05-01T09:12:18.959000+00:00,1777626738959,S009,18,50,1777626738796,1777626738935,1777626738959,message,1777626738712,0.011765733361244202,-0.033397555351257324,0.029667139053344727,0.4100733995437622,-0.15457962453365326,-0.09235668182373047
2026-05-01T09:12:18.959000+00:00,1777626738959,S009,18,50,1777626738796,1777626738935,1777626738959,message,1777626738733,-0.0009944438934326172,0.03402352333068848,0.02176731824874878,0.5062883496284485,-0.1903906613588333,-0.07360232621431351
2026-05-01T09:12:18.959000+00:00,1777626738959,S009,18,50,1777626738796,1777626738935,1777626738959,message,1777626738753,0.034054890275001526,0.0559769868850708,0.019236862659454346,0.566848635673523,-0.20599474012851715,-0.051635242998600006
2026-05-01T09:12:18.959000+00:00,1777626738959,S009,18,50,1777626738796,1777626738935,1777626738959,message,1777626738773,-0.005169689655303955,-0.038884520530700684,0.0008623003959655762,0.24799209833145142,-0.17132148146629333,-0.037034567445516586
2026-05-01T09:12:18.959000+00:00,1777626738959,S009,18,50,1777626738796,1777626738935,1777626738959,message,1777626738795,0.011746227741241455,0.040385544300079346,0.005543947219848633,0.48517346382141113,-0.18750950694084167,-0.04507007077336311
2026-05-01T09:12:19.033000+00:00,1777626739033,S009,19,50,1777626738994,1777626739015,1777626739033,message,1777626738813,-0.00012893974781036377,-0.019660234451293945,-0.04333055019378662,0.6075912714004517,-0.1660197377204895,-0.04682845249772072
2026-05-01T09:12:19.033000+00:00,1777626739033,S009,19,50,1777626738994,1777626739015,1777626739033,message,1777626738833,-0.00520777702331543,-0.006880044937133789,0.021750450134277344,0.5490520596504211,-0.14122916758060455,-0.04775272682309151
2026-05-01T09:12:19.033000+00:00,1777626739033,S009,19,50,1777626738994,1777626739015,1777626739033,message,1777626738853,-0.007577642798423767,-0.02641475200653076,-0.0075574517250061035,0.41354188323020935,-0.11760427057743073,-0.03517701476812363
2026-05-01T09:12:19.033000+00:00,1777626739033,S009,19,50,1777626738994,1777626739015,1777626739033,message,1777626738873,-0.0009560883045196533,-0.014165043830871582,0.018433749675750732,0.25877466797828674,-0.09202399849891663,-0.022680874913930893
2026-05-01T09:12:19.033000+00:00,1777626739033,S009,19,50,1777626738994,1777626739015,1777626739033,message,1777626738894,-0.018300741910934448,-0.009931683540344238,0.008047878742218018,0.3333250880241394,-0.117497019469738,-0.0030209417454898357
2026-05-01T09:12:19.033000+00:00,1777626739033,S009,19,50,1777626738994,1777626739015,1777626739033,message,1777626738913,-0.01272648572921753,0.04169279336929321,0.03070664405822754,0.4759059250354767,-0.16678538918495178,0.022983547300100327
2026-05-01T09:12:19.033000+00:00,1777626739033,S009,19,50,1777626738994,1777626739015,1777626739033,message,1777626738933,-0.02249176800251007,-0.013421833515167236,0.008111000061035156,0.35716408491134644,-0.16134794056415558,0.02564644254744053
2026-05-01T09:12:19.033000+00:00,1777626739033,S009,19,50,1777626738994,1777626739015,1777626739033,message,1777626738953,-0.015583321452140808,-0.03748774528503418,0.00015288591384887695,0.14232823252677917,-0.10272933542728424,0.006590086966753006
2026-05-01T09:12:19.033000+00:00,1777626739033,S009,19,50,1777626738994,1777626739015,1777626739033,message,1777626738974,-0.02060648798942566,-0.049982428550720215,-0.021237492561340332,-0.0797857865691185,-0.04924282804131508,-0.015660250559449196
2026-05-01T09:12:19.033000+00:00,1777626739033,S009,19,50,1777626738994,1777626739015,1777626739033,message,1777626738994,-0.00987020879983902,-0.03547179698944092,-0.02703404426574707,-0.16843630373477936,-0.017766203731298447,-0.01908678188920021
2026-05-01T09:12:19.290000+00:00,1777626739290,S009,20,50,1777626739195,1777626739282,1777626739290,message,1777626739014,-0.00031270831823349,0.010889589786529541,-0.020618200302124023,-0.06699835509061813,-0.013734671287238598,-0.02103685401380062
2026-05-01T09:12:19.290000+00:00,1777626739290,S009,20,50,1777626739195,1777626739282,1777626739290,message,1777626739034,0.012428201735019684,0.018016695976257324,-0.0037535429000854492,-0.003221241757273674,-0.03443237766623497,-0.006069249007850885
2026-05-01T09:12:19.290000+00:00,1777626739290,S009,20,50,1777626739195,1777626739282,1777626739290,message,1777626739054,0.008191369473934174,0.001824021339416504,0.011222481727600098,-0.01943083666265011,-0.03277265653014183,-0.015241228975355625
2026-05-01T09:12:19.290000+00:00,1777626739290,S009,20,50,1777626739195,1777626739282,1777626739290,message,1777626739074,0.0043878331780433655,0.031118452548980713,0.03479737043380737,-0.019483301788568497,-0.03549140319228172,-0.0025592560414224863
2026-05-01T09:12:19.290000+00:00,1777626739290,S009,20,50,1777626739195,1777626739282,1777626739290,message,1777626739094,-0.011448770761489868,-0.0016967058181762695,0.010192036628723145,0.023796262219548225,-0.04674747958779335,-0.0013528976123780012
2026-05-01T09:12:19.290000+00:00,1777626739290,S009,20,50,1777626739195,1777626739282,1777626739290,message,1777626739114,-0.015407666563987732,0.03849440813064575,0.010072410106658936,0.21544772386550903,-0.044796377420425415,0.003885061014443636
2026-05-01T09:12:19.290000+00:00,1777626739290,S009,20,50,1777626739195,1777626739282,1777626739290,message,1777626739136,-0.01044744998216629,0.03246098756790161,0.009425640106201172,0.3908970355987549,-0.08186506479978561,0.005843176506459713
2026-05-01T09:12:19.290000+00:00,1777626739290,S009,20,50,1777626739195,1777626739282,1777626739290,message,1777626739154,-0.005820862948894501,0.018001794815063477,0.017134666442871094,0.3817030191421509,-0.08559752255678177,0.011805620975792408
2026-05-01T09:12:19.290000+00:00,1777626739290,S009,20,50,1777626739195,1777626739282,1777626739290,message,1777626739175,-0.00816255807876587,-0.010599374771118164,-0.009002447128295898,0.2904103696346283,-0.06112619489431381,-2.536509418860078e-05
2026-05-01T09:12:19.290000+00:00,1777626739290,S009,20,50,1777626739195,1777626739282,1777626739290,message,1777626739195,0.008224226534366608,-0.026611387729644775,-0.010640561580657959,0.13186334073543549,-0.025384897366166115,0.0026121765840798616
2026-05-01T09:12:19.563000+00:00,1777626739563,S009,21,50,1777626739395,1777626739528,1777626739563,message,1777626739215,-0.004041694104671478,-0.0415036678314209,-0.031517982482910156,0.05210379511117935,-0.005781864281743765,0.020527953281998634
2026-05-01T09:12:19.563000+00:00,1777626739563,S009,21,50,1777626739395,1777626739528,1777626739563,message,1777626739235,0.007655017077922821,-0.04792433977127075,-0.03065800666809082,0.007209828123450279,-0.0075839487835764885,0.031951796263456345
2026-05-01T09:12:19.563000+00:00,1777626739563,S009,21,50,1777626739395,1777626739528,1777626739563,message,1777626739255,0.014923304319381714,-0.015247166156768799,-0.0329974889755249,0.013509269803762436,0.006365460809320211,0.026522355154156685
2026-05-01T09:12:19.563000+00:00,1777626739563,S009,21,50,1777626739395,1777626739528,1777626739563,message,1777626739275,0.0007385089993476868,-0.028505563735961914,-0.026295781135559082,-0.045645661652088165,0.02623150125145912,0.017044059932231903
2026-05-01T09:12:19.563000+00:00,1777626739563,S009,21,50,1777626739395,1777626739528,1777626739563,message,1777626739295,-0.01006227731704712,-0.016708731651306152,0.0013365745544433594,-0.14483723044395447,0.032805513590574265,0.015099525451660156
2026-05-01T09:12:19.563000+00:00,1777626739563,S009,21,50,1777626739395,1777626739528,1777626739563,message,1777626739315,-0.01940503716468811,-0.005339324474334717,-0.0025423765182495117,-0.11971696466207504,0.03001824952661991,0.010614389553666115
2026-05-01T09:12:19.563000+00:00,1777626739563,S009,21,50,1777626739395,1777626739528,1777626739563,message,1777626739335,-0.0028162598609924316,0.02606898546218872,0.021100401878356934,-0.012288771569728851,0.008293132297694683,0.008745277300477028
2026-05-01T09:12:19.563000+00:00,1777626739563,S009,21,50,1777626739395,1777626739528,1777626739563,message,1777626739355,-0.009988613426685333,0.011424005031585693,0.0076732635498046875,-0.0014904532581567764,-0.002190324943512678,0.002535424195230007
2026-05-01T09:12:19.563000+00:00,1777626739563,S009,21,50,1777626739395,1777626739528,1777626739563,message,1777626739375,-0.0028199031949043274,-0.0020539164543151855,0.013723611831665039,0.01768190972507,-0.013523749075829983,0.00698801688849926
2026-05-01T09:12:19.563000+00:00,1777626739563,S009,21,50,1777626739395,1777626739528,1777626739563,message,1777626739395,-0.02147601544857025,-0.00016582012176513672,-0.014860033988952637,0.005031095817685127,-0.0035246447660028934,-0.004682328552007675
2026-05-01T09:12:19.646000+00:00,1777626739646,S009,22,50,1777626739600,1777626739646,1777626739646,message,1777626739415,-0.00785905122756958,-0.0018158555030822754,0.0037217140197753906,-0.021821822971105576,0.009978990070521832,-0.016270222142338753
2026-05-01T09:12:19.646000+00:00,1777626739646,S009,22,50,1777626739600,1777626739646,1777626739646,message,1777626739435,-0.001835554838180542,-0.0083695650100708,-0.0025283098220825195,-0.03765218332409859,0.01962115429341793,-0.020642919465899467
2026-05-01T09:12:19.646000+00:00,1777626739646,S009,22,50,1777626739600,1777626739646,1777626739646,message,1777626739456,0.009884446859359741,0.013271629810333252,0.016509532928466797,-0.055143557488918304,0.02397671714425087,-0.015169323422014713
2026-05-01T09:12:19.646000+00:00,1777626739646,S009,22,50,1777626739600,1777626739646,1777626739646,message,1777626739477,0.012246958911418915,0.017079949378967285,0.010033369064331055,-0.0502537302672863,0.0269403588026762,-0.00253060064278543
2026-05-01T09:12:19.646000+00:00,1777626739646,S009,22,50,1777626739600,1777626739646,1777626739646,message,1777626739497,-0.01271895319223404,-0.020367980003356934,-0.01262807846069336,-0.06814271211624146,0.036180347204208374,-0.0013981179799884558
2026-05-01T09:12:19.646000+00:00,1777626739646,S009,22,50,1777626739600,1777626739646,1777626739646,message,1777626739516,-0.013946175575256348,-0.03064119815826416,0.003320932388305664,-0.41770362854003906,0.008735178969800472,-0.01427370309829712
2026-05-01T09:12:19.646000+00:00,1777626739646,S009,22,50,1777626739600,1777626739646,1777626739646,message,1777626739536,-0.006376646459102631,-0.1010393500328064,0.01312863826751709,-1.0609302520751953,0.008775620721280575,-0.004260750021785498
2026-05-01T09:12:19.646000+00:00,1777626739646,S009,22,50,1777626739600,1777626739646,1777626739646,message,1777626739556,-0.05916806310415268,-0.025599002838134766,0.02277541160583496,-1.0288610458374023,0.04854053258895874,-0.012065836228430271
2026-05-01T09:12:19.646000+00:00,1777626739646,S009,22,50,1777626739600,1777626739646,1777626739646,message,1777626739577,-0.05760654807090759,0.10422497987747192,-0.04484283924102783,-0.4335204064846039,0.07609614729881287,-0.04798192158341408
2026-05-01T09:12:19.646000+00:00,1777626739646,S009,22,50,1777626739600,1777626739646,1777626739646,message,1777626739600,0.007778361439704895,0.0637018084526062,0.01669842004776001,-0.016206547617912292,0.016748860478401184,-0.04725322499871254
2026-05-01T09:12:19.767000+00:00,1777626739767,S009,23,50,1777626739798,1777626739769,1777626739767,message,1777626739617,0.043134503066539764,0.095791757106781,0.05440676212310791,0.3145194351673126,-0.06067775562405586,-0.02292625978589058
2026-05-01T09:12:19.767000+00:00,1777626739767,S009,23,50,1777626739798,1777626739769,1777626739767,message,1777626739636,0.05234954506158829,0.03808605670928955,0.042189180850982666,0.3220551311969757,-0.08609656244516373,-0.0012039202265441418
2026-05-01T09:12:19.767000+00:00,1777626739767,S009,23,50,1777626739798,1777626739769,1777626739767,message,1777626739656,0.05149766057729721,0.03339254856109619,0.02892202138900757,0.3599010407924652,-0.07636430114507675,0.004313617013394833
2026-05-01T09:12:19.767000+00:00,1777626739767,S009,23,50,1777626739798,1777626739769,1777626739767,message,1777626739677,0.03151912987232208,0.028583824634552002,0.027560174465179443,0.5107542276382446,-0.08062988519668579,0.0017484601121395826
2026-05-01T09:12:19.767000+00:00,1777626739767,S009,23,50,1777626739798,1777626739769,1777626739767,message,1777626739697,0.013617970049381256,0.008794307708740234,0.010384857654571533,0.5804909467697144,-0.08757568150758743,0.04590952768921852
2026-05-01T09:12:19.767000+00:00,1777626739767,S009,23,50,1777626739798,1777626739769,1777626739767,message,1777626739721,-0.01001785695552826,-0.0014662742614746094,4.857778549194336e-05,0.5054976344108582,-0.04098105430603027,0.06450238823890686
2026-05-01T09:12:19.767000+00:00,1777626739767,S009,23,50,1777626739798,1777626739769,1777626739767,message,1777626739737,-0.05091241002082825,-0.07940560579299927,-0.05014878511428833,0.3105795681476593,0.027773775160312653,0.05471266433596611
2026-05-01T09:12:19.767000+00:00,1777626739767,S009,23,50,1777626739798,1777626739769,1777626739767,message,1777626739758,-0.0432487428188324,-0.07933688163757324,-0.05613011121749878,0.2112516313791275,0.07173164933919907,0.03067220188677311
2026-05-01T09:12:19.767000+00:00,1777626739767,S009,23,50,1777626739798,1777626739769,1777626739767,message,1777626739785,-0.016066312789916992,-0.074482262134552,-0.06440585851669312,0.11317567527294159,0.09104195982217789,0.030714917927980423
2026-05-01T09:12:19.767000+00:00,1777626739767,S009,23,50,1777626739798,1777626739769,1777626739767,message,1777626739798,-0.0052830129861831665,-0.034337639808654785,-0.07261943817138672,0.06173964962363243,0.10903480648994446,0.009855921380221844
2026-05-01T09:12:20.068000+00:00,1777626740068,S009,24,50,1777626739999,1777626740056,1777626740068,message,1777626739817,0.0005824118852615356,-0.016673147678375244,0.001379847526550293,-0.15041975677013397,0.10620611906051636,-0.018446611240506172
2026-05-01T09:12:20.068000+00:00,1777626740068,S009,24,50,1777626739999,1777626740056,1777626740068,message,1777626739837,0.006964363157749176,-0.0017340779304504395,-0.002800583839416504,-0.15493887662887573,0.083314910531044,-0.019980376586318016
2026-05-01T09:12:20.068000+00:00,1777626740068,S009,24,50,1777626739999,1777626740056,1777626740068,message,1777626739857,0.021872103214263916,0.04637587070465088,0.03574860095977783,-0.012269597500562668,0.04291430488228798,-0.012408265843987465
2026-05-01T09:12:20.068000+00:00,1777626740068,S009,24,50,1777626739999,1777626740056,1777626740068,message,1777626739878,0.009826555848121643,0.016633987426757812,0.041361212730407715,0.013806479051709175,0.02083517611026764,-0.00571046769618988
2026-05-01T09:12:20.068000+00:00,1777626740068,S009,24,50,1777626739999,1777626740056,1777626740068,message,1777626739898,0.0004656687378883362,0.0005577802658081055,0.012387752532958984,0.03656665235757828,0.021584589034318924,-0.0067403120920062065
2026-05-01T09:12:20.068000+00:00,1777626740068,S009,24,50,1777626739999,1777626740056,1777626740068,message,1777626739918,-0.025565385818481445,-0.002971827983856201,-0.024666905403137207,0.005391156300902367,0.037057556211948395,-0.013192938640713692
2026-05-01T09:12:20.068000+00:00,1777626740068,S009,24,50,1777626739999,1777626740056,1777626740068,message,1777626739938,-0.018800102174282074,-0.028569698333740234,-0.007651090621948242,-0.18879322707653046,0.014850975945591927,-0.029299523681402206
2026-05-01T09:12:20.068000+00:00,1777626740068,S009,24,50,1777626739999,1777626740056,1777626740068,message,1777626739958,0.005875498056411743,-0.028280198574066162,0.026645362377166748,-0.5259611010551453,-0.0654909685254097,-0.02335747890174389
2026-05-01T09:12:20.068000+00:00,1777626740068,S009,24,50,1777626739999,1777626740056,1777626740068,message,1777626739979,-0.028827592730522156,-0.06326854228973389,0.008559346199035645,-0.8809232115745544,-0.029092969372868538,0.0024780062958598137
2026-05-01T09:12:20.068000+00:00,1777626740068,S009,24,50,1777626739999,1777626740056,1777626740068,message,1777626739998,-0.06712669134140015,-0.03653109073638916,-0.04983353614807129,-0.9399607181549072,0.07630360871553421,-0.014608941040933132
2026-05-01T09:12:20.214000+00:00,1777626740214,S009,25,50,1777626740199,1777626740211,1777626740214,message,1777626740018,-0.022340454161167145,0.013010919094085693,-0.07026636600494385,-0.6900424957275391,0.1129966452717781,-0.023493513464927673
2026-05-01T09:12:20.214000+00:00,1777626740214,S009,25,50,1777626740199,1777626740211,1777626740214,message,1777626740039,0.01743815839290619,0.04256635904312134,-0.00750577449798584,-0.31471335887908936,0.08594805002212524,-0.01911703497171402
2026-05-01T09:12:20.214000+00:00,1777626740214,S009,25,50,1777626740199,1777626740211,1777626740214,message,1777626740059,0.03044845163822174,0.05511581897735596,0.027631282806396484,0.05569853633642197,0.0017204888863489032,-0.008877179585397243
2026-05-01T09:12:20.214000+00:00,1777626740214,S009,25,50,1777626740199,1777626740211,1777626740214,message,1777626740079,0.04540077596902847,0.0709085464477539,0.03345978260040283,0.39225444197654724,-0.07598499953746796,0.00131601607427001
2026-05-01T09:12:20.214000+00:00,1777626740214,S009,25,50,1777626740199,1777626740211,1777626740214,message,1777626740099,0.028960444033145905,0.04410696029663086,0.03413480520248413,0.5979775190353394,-0.11517443507909775,-0.0017835308099165559
2026-05-01T09:12:20.214000+00:00,1777626740214,S009,25,50,1777626740199,1777626740211,1777626740214,message,1777626740121,0.013290062546730042,0.034166693687438965,0.0061754584312438965,0.7867777943611145,-0.15051990747451782,0.005705864168703556
2026-05-01T09:12:20.214000+00:00,1777626740214,S009,25,50,1777626740199,1777626740211,1777626740214,message,1777626740139,0.009265430271625519,0.06002849340438843,0.048940837383270264,0.9769642353057861,-0.19581107795238495,0.010692473500967026
2026-05-01T09:12:20.214000+00:00,1777626740214,S009,25,50,1777626740199,1777626740211,1777626740214,message,1777626740159,0.0021039918065071106,0.06148374080657959,0.045664191246032715,1.1102930307388306,-0.22816836833953857,0.04747887700796127
2026-05-01T09:12:20.214000+00:00,1777626740214,S009,25,50,1777626740199,1777626740211,1777626740214,message,1777626740180,-0.04442411661148071,-0.021021902561187744,-0.004220306873321533,0.7483465075492859,-0.14442963898181915,0.045229144394397736
2026-05-01T09:12:20.214000+00:00,1777626740214,S009,25,50,1777626740199,1777626740211,1777626740214,message,1777626740199,-0.05588316172361374,-0.12099730968475342,-0.013498246669769287,0.007365889847278595,-0.02073129080235958,0.004232550039887428
2026-05-01T09:12:20.625000+00:00,1777626740625,S009,26,50,1777626740400,1777626740619,1777626740625,message,1777626740219,-0.00820399820804596,-0.13679641485214233,0.007147550582885742,-0.7013795971870422,0.06155399605631828,-0.03241505101323128
2026-05-01T09:12:20.625000+00:00,1777626740625,S009,26,50,1777626740400,1777626740619,1777626740625,message,1777626740240,0.007278546690940857,-0.059251248836517334,0.046259164810180664,-1.0930533409118652,0.08992229402065277,-0.010415635071694851
2026-05-01T09:12:20.625000+00:00,1777626740625,S009,26,50,1777626740400,1777626740619,1777626740625,message,1777626740260,-0.05401867628097534,-0.07397615909576416,-0.006431460380554199,-1.2542158365249634,0.22521604597568512,-0.0015403841389343143
2026-05-01T09:12:20.625000+00:00,1777626740625,S009,26,50,1777626740400,1777626740619,1777626740625,message,1777626740280,-0.06271225959062576,-0.08352863788604736,-0.033558547496795654,-1.6102317571640015,0.36845800280570984,-0.04166298359632492
2026-05-01T09:12:20.625000+00:00,1777626740625,S009,26,50,1777626740400,1777626740619,1777626740625,message,1777626740300,-0.05762902647256851,-0.01664280891418457,-0.12452363967895508,-1.3874318599700928,0.4078059494495392,-0.051555827260017395
2026-05-01T09:12:20.625000+00:00,1777626740625,S009,26,50,1777626740400,1777626740619,1777626740625,message,1777626740320,-0.003413677215576172,0.1390211582183838,-0.06883031129837036,-0.48472556471824646,0.33931270241737366,-0.06602302193641663
2026-05-01T09:12:20.625000+00:00,1777626740625,S009,26,50,1777626740400,1777626740619,1777626740625,message,1777626740340,0.046782299876213074,0.09436815977096558,0.02651435136795044,0.07399605214595795,0.14985136687755585,-0.038434915244579315
2026-05-01T09:12:20.625000+00:00,1777626740625,S009,26,50,1777626740400,1777626740619,1777626740625,message,1777626740360,0.07857862114906311,0.1652679443359375,0.0976681113243103,0.6621916890144348,-0.06020873785018921,-0.017951475456357002
2026-05-01T09:12:20.625000+00:00,1777626740625,S009,26,50,1777626740400,1777626740619,1777626740625,message,1777626740380,0.09627324342727661,0.07693344354629517,0.08173322677612305,0.8925337791442871,-0.17507877945899963,0.00635471660643816
2026-05-01T09:12:20.625000+00:00,1777626740625,S009,26,50,1777626740400,1777626740619,1777626740625,message,1777626740400,0.06558951735496521,0.03584021329879761,0.03606635332107544,0.9895787835121155,-0.16899025440216064,0.0005326737882569432
2026-05-01T09:12:20.764000+00:00,1777626740764,S009,27,50,1777626740602,1777626740736,1777626740764,message,1777626740420,0.005154833197593689,-0.01181560754776001,0.014670372009277344,1.0354629755020142,-0.13573460280895233,-0.01637190207839012
2026-05-01T09:12:20.764000+00:00,1777626740764,S009,27,50,1777626740602,1777626740736,1777626740764,message,1777626740440,0.0007500723004341125,0.037519633769989014,0.041955769062042236,1.0719349384307861,-0.15705819427967072,0.022852201014757156
2026-05-01T09:12:20.764000+00:00,1777626740764,S009,27,50,1777626740602,1777626740736,1777626740764,message,1777626740460,-0.018620401620864868,0.010037243366241455,0.04472380876541138,0.8697128891944885,-0.11044938117265701,0.04227415472269058
2026-05-01T09:12:20.764000+00:00,1777626740764,S009,27,50,1777626740602,1777626740736,1777626740764,message,1777626740481,-0.07771547138690948,-0.09803307056427002,-0.01654219627380371,0.42964068055152893,-0.03339538350701332,0.010323199443519115
2026-05-01T09:12:20.764000+00:00,1777626740764,S009,27,50,1777626740602,1777626740736,1777626740764,message,1777626740501,-0.057645946741104126,-0.08084172010421753,-0.023514151573181152,0.047401994466781616,0.04150195047259331,-0.00515802251175046
2026-05-01T09:12:20.764000+00:00,1777626740764,S009,27,50,1777626740602,1777626740736,1777626740764,message,1777626740521,-0.003421492874622345,-0.05124610662460327,-0.0030277371406555176,-0.22868019342422485,0.05214299261569977,-0.0036806599237024784
2026-05-01T09:12:20.764000+00:00,1777626740764,S009,27,50,1777626740602,1777626740736,1777626740764,message,1777626740541,0.017251312732696533,0.009989440441131592,0.01193147897720337,-0.18302375078201294,0.02587592974305153,0.008803865872323513
2026-05-01T09:12:20.764000+00:00,1777626740764,S009,27,50,1777626740602,1777626740736,1777626740764,message,1777626740563,0.018934451043605804,0.03190302848815918,-0.0002568960189819336,-0.022840214893221855,0.021489474922418594,0.027441732585430145
2026-05-01T09:12:20.764000+00:00,1777626740764,S009,27,50,1777626740602,1777626740736,1777626740764,message,1777626740581,0.003010593354701996,-0.00874096155166626,-0.012090325355529785,0.07609275728464127,0.010566938668489456,0.031984712928533554
2026-05-01T09:12:20.764000+00:00,1777626740764,S009,27,50,1777626740602,1777626740736,1777626740764,message,1777626740601,-0.01590268313884735,-0.006785035133361816,-0.038860440254211426,0.14585372805595398,0.02730041742324829,-0.0011931079206988215
2026-05-01T09:12:20.803000+00:00,1777626740803,S009,28,50,1777626740804,1777626740807,1777626740803,message,1777626740621,-0.009761892259120941,-0.04879552125930786,-0.03833961486816406,0.058813102543354034,0.040974874049425125,-0.022576533257961273
2026-05-01T09:12:20.803000+00:00,1777626740803,S009,28,50,1777626740804,1777626740807,1777626740803,message,1777626740641,-0.008301086723804474,-0.02432262897491455,-0.03796744346618652,-0.02624213881790638,0.06133086234331131,-0.028788570314645767
2026-05-01T09:12:20.803000+00:00,1777626740803,S009,28,50,1777626740804,1777626740807,1777626740803,message,1777626740662,0.0045591071248054504,-0.014400839805603027,-0.030469417572021484,0.06597061455249786,0.0708228200674057,-0.018128257244825363
2026-05-01T09:12:20.803000+00:00,1777626740803,S009,28,50,1777626740804,1777626740807,1777626740803,message,1777626740682,0.013837844133377075,0.001078963279724121,-0.013765692710876465,0.1220991313457489,0.03474965691566467,-0.010271823965013027
2026-05-01T09:12:20.803000+00:00,1777626740803,S009,28,50,1777626740804,1777626740807,1777626740803,message,1777626740702,0.014134787023067474,0.01646631956100464,-0.00582122802734375,0.0877816379070282,0.025104109197854996,-0.002069554291665554
2026-05-01T09:12:20.803000+00:00,1777626740803,S009,28,50,1777626740804,1777626740807,1777626740803,message,1777626740722,0.009500332176685333,-0.001353919506072998,-0.004352390766143799,-0.02336246147751808,0.030440742149949074,-0.01644955947995186
2026-05-01T09:12:20.803000+00:00,1777626740803,S009,28,50,1777626740804,1777626740807,1777626740803,message,1777626740742,0.014983408153057098,0.03200346231460571,0.023319780826568604,-0.07576281577348709,0.026112837716937065,-0.0188701581209898
2026-05-01T09:12:20.803000+00:00,1777626740803,S009,28,50,1777626740804,1777626740807,1777626740803,message,1777626740763,0.02331925928592682,0.03629255294799805,0.07068616151809692,-0.165757954120636,-0.02354077436029911,0.000792704988270998
2026-05-01T09:12:20.803000+00:00,1777626740803,S009,28,50,1777626740804,1777626740807,1777626740803,message,1777626740782,0.006676465272903442,0.027752935886383057,0.09715992212295532,-0.34243419766426086,-0.03964749723672867,0.02254156954586506
2026-05-01T09:12:20.803000+00:00,1777626740803,S009,28,50,1777626740804,1777626740807,1777626740803,message,1777626740803,-0.008800894021987915,0.04108476638793945,0.03838753700256348,-0.31344595551490784,-0.029470529407262802,0.033077407628297806
2026-05-01T09:12:21.075000+00:00,1777626741075,S009,29,50,1777626741003,1777626741070,1777626741075,message,1777626740822,-0.011225610971450806,0.011542081832885742,0.027147293090820312,-0.3230591416358948,-0.02203483320772648,0.022171176970005035
2026-05-01T09:12:21.075000+00:00,1777626741075,S009,29,50,1777626741003,1777626741070,1777626741075,message,1777626740842,0.0054943859577178955,0.027640998363494873,0.03660851716995239,-0.2892623245716095,-0.02641044370830059,0.026055343449115753
2026-05-01T09:12:21.075000+00:00,1777626741075,S009,29,50,1777626741003,1777626741070,1777626741075,message,1777626740867,-0.01742534339427948,0.026072978973388672,-0.004691004753112793,-0.1117812767624855,0.009342418052256107,0.031205525621771812
2026-05-01T09:12:21.075000+00:00,1777626741075,S009,29,50,1777626741003,1777626741070,1777626741075,message,1777626740882,-0.023363113403320312,-0.01601266860961914,-0.02214372158050537,0.04486745595932007,0.03636897727847099,0.02938738465309143
2026-05-01T09:12:21.075000+00:00,1777626741075,S009,29,50,1777626741003,1777626741070,1777626741075,message,1777626740903,-0.023665636777877808,0.013888537883758545,-0.020301103591918945,0.0919492170214653,0.023971503600478172,0.008755769580602646
2026-05-01T09:12:21.075000+00:00,1777626741075,S009,29,50,1777626741003,1777626741070,1777626741075,message,1777626740923,-0.0019512325525283813,-0.004336416721343994,-0.006881833076477051,0.10642270743846893,-0.00965387187898159,0.005691589787602425
2026-05-01T09:12:21.075000+00:00,1777626741075,S009,29,50,1777626741003,1777626741070,1777626741075,message,1777626740943,-0.004011407494544983,0.0033069849014282227,-0.018037259578704834,0.1653030514717102,-0.021454110741615295,-0.009254123084247112
2026-05-01T09:12:21.075000+00:00,1777626741075,S009,29,50,1777626741003,1777626741070,1777626741075,message,1777626740963,0.001568824052810669,-0.02603834867477417,-0.012144148349761963,0.1147858276963234,-0.029147639870643616,-0.013789806514978409
2026-05-01T09:12:21.075000+00:00,1777626741075,S009,29,50,1777626741003,1777626741070,1777626741075,message,1777626740983,-0.0002916082739830017,-0.004772543907165527,-0.010345637798309326,0.0800347626209259,-0.040099434554576874,-0.026071934029459953
2026-05-01T09:12:21.075000+00:00,1777626741075,S009,29,50,1777626741003,1777626741070,1777626741075,message,1777626741003,-0.0015840008854866028,0.0029601454734802246,-0.0021813511848449707,0.02353447489440441,-0.040528468787670135,-0.0236174575984478
2026-05-01T09:12:21.303000+00:00,1777626741303,S009,30,50,1777626741204,1777626741306,1777626741303,message,1777626741023,0.012989990413188934,-0.005806088447570801,-0.005458652973175049,0.028989160433411598,-0.03780040144920349,-0.011273864656686783
2026-05-01T09:12:21.303000+00:00,1777626741303,S009,30,50,1777626741204,1777626741306,1777626741303,message,1777626741043,-0.003936298191547394,-0.020285189151763916,-0.017470896244049072,0.08846713602542877,-0.02287471666932106,-0.009272339753806591
2026-05-01T09:12:21.303000+00:00,1777626741303,S009,30,50,1777626741204,1777626741306,1777626741303,message,1777626741065,-0.003615237772464752,0.0042174458503723145,-0.0017586946487426758,0.08933958411216736,-0.0006653229938820004,-0.013888929039239883
2026-05-01T09:12:21.303000+00:00,1777626741303,S009,30,50,1777626741204,1777626741306,1777626741303,message,1777626741084,0.0034134164452552795,-0.014897942543029785,-0.011962413787841797,0.01311352290213108,0.0010936569888144732,-0.005074025597423315
2026-05-01T09:12:21.303000+00:00,1777626741303,S009,30,50,1777626741204,1777626741306,1777626741303,message,1777626741103,0.00017227977514266968,-0.0072054266929626465,-0.020252585411071777,-0.04039710387587547,0.01304485835134983,-0.0017507205484434962
2026-05-01T09:12:21.303000+00:00,1777626741303,S009,30,50,1777626741204,1777626741306,1777626741303,message,1777626741124,0.01631663739681244,-0.004145443439483643,-0.019893109798431396,-0.1299096792936325,0.03458283096551895,0.014950602315366268
2026-05-01T09:12:21.303000+00:00,1777626741303,S009,30,50,1777626741204,1777626741306,1777626741303,message,1777626741151,0.020700231194496155,-0.021979093551635742,-0.00024402141571044922,-0.21079573035240173,0.06666874885559082,0.009673920460045338
2026-05-01T09:12:21.303000+00:00,1777626741303,S009,30,50,1777626741204,1777626741306,1777626741303,message,1777626741165,0.00834132730960846,-0.010586321353912354,0.022777676582336426,-0.2260255515575409,0.07393640279769897,-0.01595090702176094
2026-05-01T09:12:21.303000+00:00,1777626741303,S009,30,50,1777626741204,1777626741306,1777626741303,message,1777626741184,0.01367238163948059,0.04059964418411255,0.01922786235809326,-0.07021758705377579,0.04190127179026604,-0.01546179223805666
2026-05-01T09:12:21.303000+00:00,1777626741303,S009,30,50,1777626741204,1777626741306,1777626741303,message,1777626741204,0.011370837688446045,0.04162055253982544,0.04433393478393555,0.045646168291568756,0.014330594800412655,-0.012684807181358337
2026-05-01T09:12:21.432000+00:00,1777626741432,S009,31,50,1777626741405,1777626741427,1777626741432,message,1777626741224,-0.0022445395588874817,-0.008685529232025146,0.019387662410736084,0.04877271503210068,-0.007791447453200817,-0.021621311083436012
2026-05-01T09:12:21.432000+00:00,1777626741432,S009,31,50,1777626741405,1777626741427,1777626741432,message,1777626741244,-0.006633974611759186,-0.009450018405914307,0.0004526376724243164,-0.005853775888681412,-0.022680001333355904,-0.029891332611441612
2026-05-01T09:12:21.432000+00:00,1777626741432,S009,31,50,1777626741405,1777626741427,1777626741432,message,1777626741265,-0.0262235626578331,-0.04028749465942383,-0.040588438510894775,-0.15948009490966797,-0.1043059229850769,-0.05043889582157135
2026-05-01T09:12:21.432000+00:00,1777626741432,S009,31,50,1777626741405,1777626741427,1777626741432,message,1777626741284,-0.018504753708839417,-0.05185079574584961,0.02552783489227295,-0.7939039468765259,-0.12899327278137207,-0.06178758665919304
2026-05-01T09:12:21.432000+00:00,1777626741432,S009,31,50,1777626741405,1777626741427,1777626741432,message,1777626741304,-0.058374032378196716,-0.06901133060455322,0.005772531032562256,-1.1344609260559082,-0.032645437866449356,-0.06562306731939316
2026-05-01T09:12:21.432000+00:00,1777626741432,S009,31,50,1777626741405,1777626741427,1777626741432,message,1777626741325,-0.10476977378129959,-0.019244909286499023,-0.10706543922424316,-0.8876284956932068,0.089470773935318,-0.10068720579147339
2026-05-01T09:12:21.432000+00:00,1777626741432,S009,31,50,1777626741405,1777626741427,1777626741432,message,1777626741344,0.0007311031222343445,0.10269755125045776,-0.002609848976135254,-0.3316161632537842,0.06793785840272903,-0.11104695498943329
2026-05-01T09:12:21.432000+00:00,1777626741432,S009,31,50,1777626741405,1777626741427,1777626741432,message,1777626741365,0.03116822987794876,0.07791560888290405,0.025812506675720215,0.02147531509399414,-0.0032034676987677813,-0.07565051317214966
2026-05-01T09:12:21.432000+00:00,1777626741432,S009,31,50,1777626741405,1777626741427,1777626741432,message,1777626741385,0.0698305144906044,0.06494748592376709,0.07452547550201416,0.22229896485805511,-0.06293656677007675,-0.03637607395648956
2026-05-01T09:12:21.432000+00:00,1777626741432,S009,31,50,1777626741405,1777626741427,1777626741432,message,1777626741405,0.0797259733080864,0.01598060131072998,0.04642200469970703,0.3116235136985779,-0.06283217668533325,-0.016457175835967064
2026-05-01T09:12:21.609000+00:00,1777626741609,S009,32,50,1777626741606,1777626741609,1777626741609,message,1777626741425,0.04542875289916992,0.0010579824447631836,0.01195293664932251,0.34415748715400696,-0.014857460744678974,-0.019646789878606796
2026-05-01T09:12:21.609000+00:00,1777626741609,S009,32,50,1777626741606,1777626741609,1777626741609,message,1777626741445,0.012593016028404236,0.010118842124938965,0.032070815563201904,0.3336193561553955,0.013219675980508327,-0.017626304179430008
2026-05-01T09:12:21.609000+00:00,1777626741609,S009,32,50,1777626741606,1777626741609,1777626741609,message,1777626741465,-0.001906953752040863,0.04183554649353027,0.07048314809799194,0.40904223918914795,-0.022681865841150284,-0.013627939857542515
2026-05-01T09:12:21.609000+00:00,1777626741609,S009,32,50,1777626741606,1777626741609,1777626741609,message,1777626741485,-0.021726101636886597,0.04594874382019043,0.055045247077941895,0.48689520359039307,-0.06963149458169937,0.0073613920249044895
2026-05-01T09:12:21.609000+00:00,1777626741609,S009,32,50,1777626741606,1777626741609,1777626741609,message,1777626741505,-0.01244094967842102,0.04070854187011719,0.02878934144973755,0.4893344044685364,-0.07322314381599426,0.032094862312078476
2026-05-01T09:12:21.609000+00:00,1777626741609,S009,32,50,1777626741606,1777626741609,1777626741609,message,1777626741525,-0.033844828605651855,-0.027346491813659668,-0.01955997943878174,0.30980804562568665,-0.014509651809930801,0.031013084575533867
2026-05-01T09:12:21.609000+00:00,1777626741609,S009,32,50,1777626741606,1777626741609,1777626741609,message,1777626741546,-0.04123590141534805,-0.061867356300354004,-0.054155588150024414,0.2200256884098053,0.041780710220336914,0.03884735703468323
2026-05-01T09:12:21.609000+00:00,1777626741609,S009,32,50,1777626741606,1777626741609,1777626741609,message,1777626741566,-0.010653376579284668,-0.030812561511993408,-0.07042300701141357,0.3121172785758972,0.07023810595273972,0.05335460975766182
2026-05-01T09:12:21.609000+00:00,1777626741609,S009,32,50,1777626741606,1777626741609,1777626741609,message,1777626741586,0.017915725708007812,-0.040095388889312744,-0.06052929162979126,0.2427576333284378,0.10078273713588715,0.048841990530490875
2026-05-01T09:12:21.609000+00:00,1777626741609,S009,32,50,1777626741606,1777626741609,1777626741609,message,1777626741606,0.017947077751159668,-0.044408440589904785,0.013445675373077393,-0.03135833516716957,0.12783262133598328,0.020475221797823906
2026-05-01T09:12:21.966000+00:00,1777626741966,S009,33,50,1777626741807,1777626741868,1777626741966,message,1777626741626,0.011194087564945221,-0.00017458200454711914,0.0032048821449279785,-0.17579354345798492,0.12184389680624008,0.0017783408984541893
2026-05-01T09:12:21.966000+00:00,1777626741966,S009,33,50,1777626741807,1777626741868,1777626741966,message,1777626741646,0.014659076929092407,0.013395369052886963,0.020065248012542725,-0.198911651968956,0.07766897231340408,0.0016127985436469316
2026-05-01T09:12:21.966000+00:00,1777626741966,S009,33,50,1777626741807,1777626741868,1777626741966,message,1777626741666,0.008122414350509644,-0.001989305019378662,0.05120342969894409,-0.46246686577796936,-0.037695929408073425,-0.007229801267385483
2026-05-01T09:12:21.966000+00:00,1777626741966,S009,33,50,1777626741807,1777626741868,1777626741966,message,1777626741686,-0.015878871083259583,-0.07052314281463623,0.027096271514892578,-0.8953532576560974,-0.11409098654985428,-0.010919026099145412
2026-05-01T09:12:21.966000+00:00,1777626741966,S009,33,50,1777626741807,1777626741868,1777626741966,message,1777626741706,-0.06435611099004745,-0.04260063171386719,-0.013357579708099365,-1.142314076423645,-0.05656967684626579,-0.021140236407518387
2026-05-01T09:12:21.966000+00:00,1777626741966,S009,33,50,1777626741807,1777626741868,1777626741966,message,1777626741726,-0.08565641194581985,-0.004656732082366943,-0.045045435428619385,-1.0793076753616333,0.09784538298845291,-0.055668655782938004
2026-05-01T09:12:21.966000+00:00,1777626741966,S009,33,50,1777626741807,1777626741868,1777626741966,message,1777626741748,-0.021452292799949646,0.05203735828399658,-0.010320961475372314,-0.7137947082519531,0.11806201189756393,-0.0742403119802475
2026-05-01T09:12:21.966000+00:00,1777626741966,S009,33,50,1777626741807,1777626741868,1777626741966,message,1777626741767,0.021831616759300232,0.13610386848449707,-0.011935949325561523,-0.010151584632694721,0.07771333307027817,-0.07254542410373688
2026-05-01T09:12:21.966000+00:00,1777626741966,S009,33,50,1777626741807,1777626741868,1777626741966,message,1777626741787,0.058890409767627716,0.06117749214172363,0.07592785358428955,0.2724319100379944,-0.015123357996344566,-0.04432017728686333
2026-05-01T09:12:21.966000+00:00,1777626741966,S009,33,50,1777626741807,1777626741868,1777626741966,message,1777626741807,0.07306085526943207,0.06606185436248779,0.0566825270652771,0.5157087445259094,-0.05918828770518303,-0.014262410812079906
2026-05-01T09:12:22.152000+00:00,1777626742152,S009,34,50,1777626742008,1777626742153,1777626742152,message,1777626741827,0.058443792164325714,0.033989787101745605,0.03345894813537598,0.7422984838485718,-0.048214998096227646,-0.0062444317154586315
2026-05-01T09:12:22.152000+00:00,1777626742152,S009,34,50,1777626742008,1777626742153,1777626742152,message,1777626741848,0.006343096494674683,0.024090886116027832,0.018645405769348145,0.8660598397254944,-0.00851008202880621,-0.010069050826132298
2026-05-01T09:12:22.152000+00:00,1777626742152,S009,34,50,1777626742008,1777626742153,1777626742152,message,1777626741867,-0.0035484954714775085,0.0022066235542297363,0.028974294662475586,0.8037527799606323,-0.012422912754118443,0.010787867940962315
2026-05-01T09:12:22.152000+00:00,1777626742152,S009,34,50,1777626742008,1777626742153,1777626742152,message,1777626741887,-0.003903523087501526,0.02152043581008911,0.03775286674499512,0.7102659940719604,-0.014989781193435192,0.0393974594771862
2026-05-01T09:12:22.152000+00:00,1777626742152,S009,34,50,1777626742008,1777626742153,1777626742152,message,1777626741907,-0.046228937804698944,-0.05872082710266113,-0.022407829761505127,0.41533926129341125,0.03499561920762062,0.020483264699578285
2026-05-01T09:12:22.152000+00:00,1777626742152,S009,34,50,1777626742008,1777626742153,1777626742152,message,1777626741927,-0.03628814220428467,-0.05063372850418091,-0.0013650059700012207,0.1413188874721527,0.053744010627269745,0.021560462191700935
2026-05-01T09:12:22.152000+00:00,1777626742152,S009,34,50,1777626742008,1777626742153,1777626742152,message,1777626741949,-0.018136143684387207,-0.013772964477539062,-0.006659984588623047,0.051167700439691544,0.05699394270777702,0.020474370568990707
2026-05-01T09:12:22.152000+00:00,1777626742152,S009,34,50,1777626742008,1777626742153,1777626742152,message,1777626741970,-0.006734795868396759,-0.009900569915771484,-0.004282116889953613,0.1706424355506897,0.05891883373260498,0.021299151703715324
2026-05-01T09:12:22.152000+00:00,1777626742152,S009,34,50,1777626742008,1777626742153,1777626742152,message,1777626741988,0.0010554119944572449,0.015152931213378906,-0.017283976078033447,0.21970026195049286,0.05104276165366173,0.015515085309743881
2026-05-01T09:12:22.152000+00:00,1777626742152,S009,34,50,1777626742008,1777626742153,1777626742152,message,1777626742008,0.0015790536999702454,-0.035540223121643066,-0.018594741821289062,0.1380527913570404,0.07561415433883667,0.00041943610995076597
2026-05-01T09:12:22.210000+00:00,1777626742210,S009,35,50,1777626742209,1777626742211,1777626742210,message,1777626742028,-0.0011919140815734863,-0.039127349853515625,-0.055975914001464844,0.14413225650787354,0.10029073804616928,-0.021194351837038994
2026-05-01T09:12:22.210000+00:00,1777626742210,S009,35,50,1777626742209,1777626742211,1777626742210,message,1777626742048,-0.007144339382648468,-0.025213956832885742,-0.05743002891540527,0.15153637528419495,0.09878517687320709,-0.03626880422234535
2026-05-01T09:12:22.210000+00:00,1777626742210,S009,35,50,1777626742209,1777626742211,1777626742210,message,1777626742068,-0.009304918348789215,-0.01299959421157837,-0.03420990705490112,0.07930825650691986,0.08394159376621246,-0.050504304468631744
2026-05-01T09:12:22.210000+00:00,1777626742210,S009,35,50,1777626742209,1777626742211,1777626742210,message,1777626742088,0.00793774425983429,0.04013550281524658,0.0022638440132141113,-0.056300170719623566,0.07938972115516663,-0.036172982305288315
2026-05-01T09:12:22.210000+00:00,1777626742210,S009,35,50,1777626742209,1777626742211,1777626742210,message,1777626742108,0.03983694314956665,0.012272834777832031,0.03481423854827881,-0.08348572254180908,0.035390760749578476,-0.018128573894500732
2026-05-01T09:12:22.210000+00:00,1777626742210,S009,35,50,1777626742209,1777626742211,1777626742210,message,1777626742128,0.07154513150453568,0.05277979373931885,0.10922950506210327,-0.2723581790924072,-0.07238136231899261,0.003725697286427021
2026-05-01T09:12:22.210000+00:00,1777626742210,S009,35,50,1777626742209,1777626742211,1777626742210,message,1777626742150,0.036981336772441864,0.07119661569595337,0.18269598484039307,-0.23869846761226654,-0.16561314463615417,0.060186631977558136
2026-05-01T09:12:22.210000+00:00,1777626742210,S009,35,50,1777626742209,1777626742211,1777626742210,message,1777626742168,-0.014695912599563599,0.09306925535202026,0.0830124020576477,-0.0489136278629303,-0.1857263296842575,0.06777631491422653
2026-05-01T09:12:22.210000+00:00,1777626742210,S009,35,50,1777626742209,1777626742211,1777626742210,message,1777626742188,-0.04302900284528732,0.015017509460449219,-0.012395739555358887,0.12061575055122375,-0.0630161240696907,0.046160828322172165
2026-05-01T09:12:22.210000+00:00,1777626742210,S009,35,50,1777626742209,1777626742211,1777626742210,message,1777626742209,-0.04859926551580429,-0.03832745552062988,-0.058206915855407715,0.12530504167079926,0.051547735929489136,0.015952588990330696
2026-05-01T09:12:22.640000+00:00,1777626742640,S009,36,50,1777626742410,1777626742571,1777626742640,message,1777626742229,-0.019644536077976227,-0.07611125707626343,-0.10364031791687012,-0.13234354555606842,0.12025623023509979,-0.012434843927621841
2026-05-01T09:12:22.640000+00:00,1777626742640,S009,36,50,1777626742410,1777626742571,1777626742640,message,1777626742250,-0.034898802638053894,-0.07980632781982422,-0.10890597105026245,-0.5289750099182129,0.14812619984149933,-0.025566890835762024
2026-05-01T09:12:22.640000+00:00,1777626742640,S009,36,50,1777626742410,1777626742571,1777626742640,message,1777626742269,-0.040715329349040985,-0.15591877698898315,-0.07595580816268921,-1.2687015533447266,0.14279241859912872,-0.0443648099899292
2026-05-01T09:12:22.640000+00:00,1777626742640,S009,36,50,1777626742410,1777626742571,1777626742640,message,1777626742289,-0.0690811350941658,-0.1696588397026062,-0.07716792821884155,-1.9004218578338623,0.2384585440158844,-0.0668368861079216
2026-05-01T09:12:22.640000+00:00,1777626742640,S009,36,50,1777626742410,1777626742571,1777626742640,message,1777626742309,-0.06684215366840363,-0.0504457950592041,-0.08456498384475708,-1.733789324760437,0.40338045358657837,-0.11692124605178833
2026-05-01T09:12:22.640000+00:00,1777626742640,S009,36,50,1777626742410,1777626742571,1777626742640,message,1777626742329,-0.00529499351978302,0.15609997510910034,-0.015306830406188965,-0.6752283573150635,0.43711361289024353,-0.13348281383514404
2026-05-01T09:12:22.640000+00:00,1777626742640,S009,36,50,1777626742410,1777626742571,1777626742640,message,1777626742350,0.03554268181324005,0.1012311577796936,0.06239575147628784,0.12159233540296555,0.29434579610824585,-0.1099439263343811
2026-05-01T09:12:22.640000+00:00,1777626742640,S009,36,50,1777626742410,1777626742571,1777626742640,message,1777626742369,0.03076966106891632,0.13904958963394165,0.006570398807525635,0.9863337874412537,0.1554369330406189,-0.12453953921794891
2026-05-01T09:12:22.640000+00:00,1777626742640,S009,36,50,1777626742410,1777626742571,1777626742640,message,1777626742389,0.03723709285259247,0.038673579692840576,0.10476386547088623,0.9419412612915039,0.13202059268951416,-0.0708867534995079
2026-05-01T09:12:22.640000+00:00,1777626742640,S009,36,50,1777626742410,1777626742571,1777626742640,message,1777626742410,0.047274067997932434,0.06285125017166138,0.02007734775543213,1.1249401569366455,0.14608865976333618,-0.06462891399860382
2026-05-01T09:12:22.742000+00:00,1777626742742,S009,37,50,1777626742611,1777626742721,1777626742742,message,1777626742430,0.03454376757144928,0.014813065528869629,0.07175856828689575,0.9440078735351562,0.17061497271060944,-0.0444926992058754
2026-05-01T09:12:22.742000+00:00,1777626742742,S009,37,50,1777626742611,1777626742721,1777626742742,message,1777626742457,0.04713115096092224,-0.05833292007446289,0.06546372175216675,0.6164531707763672,0.15809376537799835,-0.03542202338576317
2026-05-01T09:12:22.742000+00:00,1777626742742,S009,37,50,1777626742611,1777626742721,1777626742742,message,1777626742470,0.00023415684700012207,-0.008829474449157715,0.03175485134124756,0.4775876998901367,0.17186366021633148,-0.041925784200429916
2026-05-01T09:12:22.742000+00:00,1777626742742,S009,37,50,1777626742611,1777626742721,1777626742742,message,1777626742492,-0.03904345631599426,-0.024794280529022217,-0.011734962463378906,0.270969033241272,0.23050639033317566,-0.05960485711693764
2026-05-01T09:12:22.742000+00:00,1777626742742,S009,37,50,1777626742611,1777626742721,1777626742742,message,1777626742510,-0.043635085225105286,-0.03588968515396118,-0.01361936330795288,-0.018191402778029442,0.3165161907672882,-0.08156294375658035
2026-05-01T09:12:22.742000+00:00,1777626742742,S009,37,50,1777626742611,1777626742721,1777626742742,message,1777626742530,-0.022868946194648743,-0.05850917100906372,-0.0015920400619506836,-0.3220418393611908,0.37974825501441956,-0.07788639515638351
2026-05-01T09:12:22.742000+00:00,1777626742742,S009,37,50,1777626742611,1777626742721,1777626742742,message,1777626742550,-0.007408797740936279,-0.011039257049560547,0.061414241790771484,-0.5033890008926392,0.3288804590702057,-0.05631963908672333
2026-05-01T09:12:22.742000+00:00,1777626742742,S009,37,50,1777626742611,1777626742721,1777626742742,message,1777626742570,0.00973200798034668,0.03318345546722412,0.0647311806678772,-0.45296069979667664,0.23952090740203857,-0.021594839170575142
2026-05-01T09:12:22.742000+00:00,1777626742742,S009,37,50,1777626742611,1777626742721,1777626742742,message,1777626742590,0.0474386066198349,0.08883053064346313,0.08281862735748291,-0.15155158936977386,0.11914961040019989,-0.0021192487329244614
2026-05-01T09:12:22.742000+00:00,1777626742742,S009,37,50,1777626742611,1777626742721,1777626742742,message,1777626742611,0.012527421116828918,0.007359564304351807,0.06155288219451904,-0.056951314210891724,0.04644021391868591,0.0040147569961845875
2026-05-01T09:12:22.897000+00:00,1777626742897,S009,38,50,1777626742812,1777626742848,1777626742897,message,1777626742631,-0.013082936406135559,-0.013460695743560791,0.03969830274581909,-0.15431514382362366,0.05313372611999512,-0.003128746524453163
2026-05-01T09:12:22.897000+00:00,1777626742897,S009,38,50,1777626742812,1777626742848,1777626742897,message,1777626742651,-0.0004371851682662964,-0.014195382595062256,0.002506852149963379,-0.24742192029953003,0.092113196849823,-0.0019109895220026374
2026-05-01T09:12:22.897000+00:00,1777626742897,S009,38,50,1777626742812,1777626742848,1777626742897,message,1777626742670,0.03718647360801697,0.03238612413406372,0.0035898685455322266,-0.20170371234416962,0.08515690267086029,0.027168812230229378
2026-05-01T09:12:22.897000+00:00,1777626742897,S009,38,50,1777626742812,1777626742848,1777626742897,message,1777626742691,0.043935954570770264,0.03962582349777222,0.0068160295486450195,-0.009070342406630516,0.00805417075753212,0.031104590743780136
2026-05-01T09:12:22.897000+00:00,1777626742897,S009,38,50,1777626742812,1777626742848,1777626742897,message,1777626742711,-0.01810455322265625,0.04209697246551514,-0.008636176586151123,0.06500521302223206,-0.050570715218782425,0.04371742904186249
2026-05-01T09:12:22.897000+00:00,1777626742897,S009,38,50,1777626742812,1777626742848,1777626742897,message,1777626742731,-0.007556930184364319,0.0230332612991333,-0.010894715785980225,0.0340329185128212,-0.07990152388811111,0.04849455505609512
2026-05-01T09:12:22.897000+00:00,1777626742897,S009,38,50,1777626742812,1777626742848,1777626742897,message,1777626742751,-0.005793541669845581,0.005216240882873535,-0.051351726055145264,-0.02521655522286892,-0.09192093461751938,0.022911962121725082
2026-05-01T09:12:22.897000+00:00,1777626742897,S009,38,50,1777626742812,1777626742848,1777626742897,message,1777626742771,0.030151426792144775,0.009024381637573242,-0.06108897924423218,0.001368984580039978,-0.09996771067380905,0.023841725662350655
2026-05-01T09:12:22.897000+00:00,1777626742897,S009,38,50,1777626742812,1777626742848,1777626742897,message,1777626742791,0.03961363434791565,-0.004685819149017334,-0.02238786220550537,0.012796875089406967,-0.06594039499759674,0.039434321224689484
2026-05-01T09:12:22.897000+00:00,1777626742897,S009,38,50,1777626742812,1777626742848,1777626742897,message,1777626742812,-0.01285696029663086,-0.02089780569076538,-0.05885970592498779,0.11268912255764008,-0.00847268383949995,0.011084916070103645
2026-05-01T09:12:23.216000+00:00,1777626743216,S009,39,50,1777626743013,1777626743205,1777626743216,message,1777626742833,-0.021339446306228638,-0.018500208854675293,0.034713804721832275,0.22845779359340668,0.06129266321659088,-0.03475378453731537
2026-05-01T09:12:23.216000+00:00,1777626743216,S009,39,50,1777626743013,1777626743205,1777626743216,message,1777626742852,-0.0153597891330719,0.03307443857192993,0.03883296251296997,0.39725959300994873,0.06681240350008011,-0.04718456789851189
2026-05-01T09:12:23.216000+00:00,1777626743216,S009,39,50,1777626743013,1777626743205,1777626743216,message,1777626742872,-0.01496867835521698,-0.006836831569671631,0.07336294651031494,0.0249632578343153,0.07329069823026657,-0.027757661417126656
2026-05-01T09:12:23.216000+00:00,1777626743216,S009,39,50,1777626743013,1777626743205,1777626743216,message,1777626742892,0.022852018475532532,0.06391644477844238,0.10684895515441895,-0.13061754405498505,0.010455543175339699,0.02257528342306614
2026-05-01T09:12:23.216000+00:00,1777626743216,S009,39,50,1777626743013,1777626743205,1777626743216,message,1777626742912,0.01161263883113861,0.015316367149353027,0.07427984476089478,0.10873086750507355,-0.07919904589653015,0.06676043570041656
2026-05-01T09:12:23.216000+00:00,1777626743216,S009,39,50,1777626743013,1777626743205,1777626743216,message,1777626742933,-0.0011161565780639648,0.06704771518707275,0.1258133053779602,0.36529314517974854,-0.21683429181575775,0.07248909771442413
2026-05-01T09:12:23.216000+00:00,1777626743216,S009,39,50,1777626743013,1777626743205,1777626743216,message,1777626742952,-0.029035955667495728,0.0005347728729248047,0.10957187414169312,0.3015943169593811,-0.30062124133110046,0.08090778440237045
2026-05-01T09:12:23.216000+00:00,1777626743216,S009,39,50,1777626743013,1777626743205,1777626743216,message,1777626742972,-0.025023773312568665,-0.005037367343902588,-0.039674460887908936,0.20285016298294067,-0.3268274664878845,0.08484318852424622
2026-05-01T09:12:23.216000+00:00,1777626743216,S009,39,50,1777626743013,1777626743205,1777626743216,message,1777626742992,-0.032201170921325684,0.009680986404418945,-0.07575809955596924,0.09076730906963348,-0.303702175617218,0.05502920225262642
2026-05-01T09:12:23.216000+00:00,1777626743216,S009,39,50,1777626743013,1777626743205,1777626743216,message,1777626743012,-0.03444945812225342,-0.05333912372589111,-0.06229400634765625,-0.054144345223903656,-0.25863000750541687,0.005176321137696505
2026-05-01T09:12:23.332000+00:00,1777626743332,S009,40,50,1777626743213,1777626743329,1777626743332,message,1777626743034,-0.008577242493629456,0.0006399750709533691,-0.047351300716400146,-0.013725279830396175,-0.2499399036169052,-0.029279762879014015
2026-05-01T09:12:23.332000+00:00,1777626743332,S009,40,50,1777626743213,1777626743329,1777626743332,message,1777626743052,0.02215513586997986,-0.006274044513702393,-0.0343019962310791,0.024977907538414,-0.23688344657421112,-0.04486580938100815
2026-05-01T09:12:23.332000+00:00,1777626743332,S009,40,50,1777626743213,1777626743329,1777626743332,message,1777626743072,0.020493924617767334,-0.04457622766494751,-0.008464694023132324,-0.09448936581611633,-0.24144989252090454,-0.016999289393424988
2026-05-01T09:12:23.332000+00:00,1777626743332,S009,40,50,1777626743213,1777626743329,1777626743332,message,1777626743092,0.00016079843044281006,0.033479392528533936,-0.03387576341629028,0.02725863642990589,-0.2338401824235916,-0.0239453986287117
2026-05-01T09:12:23.332000+00:00,1777626743332,S009,40,50,1777626743213,1777626743329,1777626743332,message,1777626743113,0.0026561766862869263,0.01348787546157837,-0.004784941673278809,0.04253026843070984,-0.1999301165342331,-0.035158850252628326
2026-05-01T09:12:23.332000+00:00,1777626743332,S009,40,50,1777626743213,1777626743329,1777626743332,message,1777626743133,0.003952547907829285,0.0018328428268432617,0.025394201278686523,0.012355588376522064,-0.16530920565128326,-0.04919493570923805
2026-05-01T09:12:23.332000+00:00,1777626743332,S009,40,50,1777626743213,1777626743329,1777626743332,message,1777626743153,-0.008968047797679901,0.02240210771560669,0.039955198764801025,0.058931075036525726,-0.14383947849273682,-0.04632388800382614
2026-05-01T09:12:23.332000+00:00,1777626743332,S009,40,50,1777626743213,1777626743329,1777626743332,message,1777626743173,-0.003983311355113983,0.04490017890930176,0.023373305797576904,0.26075607538223267,-0.15199865400791168,-0.02067231945693493
2026-05-01T09:12:23.332000+00:00,1777626743332,S009,40,50,1777626743213,1777626743329,1777626743332,message,1777626743193,0.0008381232619285583,0.004769742488861084,0.013463258743286133,0.26278460025787354,-0.13002659380435944,0.0007200006511993706
2026-05-01T09:12:23.332000+00:00,1777626743332,S009,40,50,1777626743213,1777626743329,1777626743332,message,1777626743213,-0.012384355068206787,-0.04138612747192383,-0.00238800048828125,0.09812802076339722,-0.05439756438136101,-0.016868313774466515
2026-05-01T09:12:23.525000+00:00,1777626743525,S009,41,50,1777626743414,1777626743524,1777626743525,message,1777626743238,-0.006113819777965546,-0.02750098705291748,0.001030564308166504,-0.09821166843175888,0.0134130222722888,-0.031181953847408295
2026-05-01T09:12:23.525000+00:00,1777626743525,S009,41,50,1777626743414,1777626743524,1777626743525,message,1777626743254,0.013807564973831177,0.018401026725769043,0.025504589080810547,-0.04549039900302887,0.0331522561609745,-0.010977774858474731
2026-05-01T09:12:23.525000+00:00,1777626743525,S009,41,50,1777626743414,1777626743524,1777626743525,message,1777626743273,0.022563643753528595,0.04713940620422363,0.04827052354812622,0.1382775604724884,-0.018491342663764954,0.008143083192408085
2026-05-01T09:12:23.525000+00:00,1777626743525,S009,41,50,1777626743414,1777626743524,1777626743525,message,1777626743293,0.01411784440279007,0.0351790189743042,0.027256250381469727,0.23359155654907227,-0.04478614404797554,0.025800637900829315
2026-05-01T09:12:23.525000+00:00,1777626743525,S009,41,50,1777626743414,1777626743524,1777626743525,message,1777626743313,0.0013442188501358032,0.0030265450477600098,0.011612892150878906,0.21275685727596283,-0.03064555488526821,0.02450229600071907
2026-05-01T09:12:23.525000+00:00,1777626743525,S009,41,50,1777626743414,1777626743524,1777626743525,message,1777626743334,-0.010837189853191376,0.00917893648147583,0.012123703956604004,0.1826346516609192,0.0019206826109439135,0.02353562042117119
2026-05-01T09:12:23.525000+00:00,1777626743525,S009,41,50,1777626743414,1777626743524,1777626743525,message,1777626743354,0.004146687686443329,0.03647303581237793,0.012128174304962158,0.2939193546772003,-0.022486580535769463,0.028551045805215836
2026-05-01T09:12:23.525000+00:00,1777626743525,S009,41,50,1777626743414,1777626743524,1777626743525,message,1777626743374,-0.0010437965393066406,0.03749960660934448,0.019823133945465088,0.43283677101135254,-0.05422872304916382,0.04459552839398384
2026-05-01T09:12:23.525000+00:00,1777626743525,S009,41,50,1777626743414,1777626743524,1777626743525,message,1777626743394,-0.017591021955013275,0.0033746957778930664,0.010094761848449707,0.4083375334739685,-0.0714159607887268,0.044021401554346085
2026-05-01T09:12:23.525000+00:00,1777626743525,S009,41,50,1777626743414,1777626743524,1777626743525,message,1777626743414,-0.04239584505558014,-0.04811602830886841,-0.03222173452377319,0.350953072309494,-0.03261949121952057,0.016370918601751328
2026-05-01T09:12:23.761000+00:00,1777626743761,S009,42,50,1777626743615,1777626743752,1777626743761,message,1777626743436,-0.02020937204360962,0.00034934282302856445,-0.012258410453796387,0.27932149171829224,-0.007210878189653158,-0.007692925166338682
2026-05-01T09:12:23.761000+00:00,1777626743761,S009,42,50,1777626743615,1777626743752,1777626743761,message,1777626743454,-0.005059324204921722,-0.0424424409866333,-0.012035965919494629,0.09653864800930023,0.017962804064154625,-0.012904091738164425
2026-05-01T09:12:23.761000+00:00,1777626743761,S009,42,50,1777626743615,1777626743752,1777626743761,message,1777626743474,0.010332204401493073,-0.019431591033935547,-0.013954877853393555,0.024775506928563118,0.02890143357217312,-0.01135993842035532
2026-05-01T09:12:23.761000+00:00,1777626743761,S009,42,50,1777626743615,1777626743752,1777626743761,message,1777626743495,0.012322522699832916,0.0061838626861572266,0.009040355682373047,-0.014310111291706562,-0.0016437682788819075,-0.004004660528153181
2026-05-01T09:12:23.761000+00:00,1777626743761,S009,42,50,1777626743615,1777626743752,1777626743761,message,1777626743515,-0.00858721137046814,0.019289076328277588,0.0002703666687011719,0.03867454454302788,-0.0128524424508214,-0.003983781207352877
2026-05-01T09:12:23.761000+00:00,1777626743761,S009,42,50,1777626743615,1777626743752,1777626743761,message,1777626743535,-0.00804128497838974,-0.01214599609375,-0.017168819904327393,0.06202487275004387,-0.02273429185152054,0.009456127882003784
2026-05-01T09:12:23.761000+00:00,1777626743761,S009,42,50,1777626743615,1777626743752,1777626743761,message,1777626743555,-0.0031426921486854553,-0.03292989730834961,-0.04302239418029785,0.025423452258110046,0.002536557614803314,-0.012468504719436169
2026-05-01T09:12:23.761000+00:00,1777626743761,S009,42,50,1777626743615,1777626743752,1777626743761,message,1777626743575,0.016722194850444794,-0.03541189432144165,-0.04059171676635742,-0.14292694628238678,0.060554854571819305,-0.035204287618398666
2026-05-01T09:12:23.761000+00:00,1777626743761,S009,42,50,1777626743615,1777626743752,1777626743761,message,1777626743595,0.015745602548122406,-0.00675433874130249,0.017459213733673096,-0.1814168095588684,0.05913740396499634,-0.044971585273742676
2026-05-01T09:12:23.761000+00:00,1777626743761,S009,42,50,1777626743615,1777626743752,1777626743761,message,1777626743615,0.02595379203557968,0.04743194580078125,0.04293757677078247,-0.08671186864376068,0.029009444639086723,-0.020556366071105003
2026-05-01T09:12:23.864000+00:00,1777626743864,S009,43,50,1777626743817,1777626743862,1777626743864,message,1777626743635,0.01080186665058136,0.040636420249938965,0.04330974817276001,-0.04551170766353607,0.014451654627919197,-0.0070601049810647964
2026-05-01T09:12:23.864000+00:00,1777626743864,S009,43,50,1777626743817,1777626743862,1777626743864,message,1777626743655,0.002962671220302582,0.023793399333953857,0.049030303955078125,-0.08878221362829208,-0.03696382790803909,0.012589283287525177
2026-05-01T09:12:23.864000+00:00,1777626743864,S009,43,50,1777626743817,1777626743862,1777626743864,message,1777626743675,-0.014207109808921814,0.04237490892410278,0.04637300968170166,-0.08591452240943909,-0.07963010668754578,0.023737328127026558
2026-05-01T09:12:23.864000+00:00,1777626743864,S009,43,50,1777626743817,1777626743862,1777626743864,message,1777626743696,-0.05082738399505615,0.028164923191070557,0.03238236904144287,-0.06308989971876144,-0.05827101692557335,-0.0005803678650408983
2026-05-01T09:12:23.864000+00:00,1777626743864,S009,43,50,1777626743817,1777626743862,1777626743864,message,1777626743716,-0.050676822662353516,-0.024844825267791748,0.004376769065856934,-0.02003590762615204,0.005244802217930555,-0.02269403263926506
2026-05-01T09:12:23.864000+00:00,1777626743864,S009,43,50,1777626743817,1777626743862,1777626743864,message,1777626743736,-0.032684244215488434,-0.015105843544006348,-0.017176806926727295,0.015748722478747368,0.03317519649863243,-0.030663488432765007
2026-05-01T09:12:23.864000+00:00,1777626743864,S009,43,50,1777626743817,1777626743862,1777626743864,message,1777626743756,-0.0061787813901901245,-0.0058367252349853516,-0.025513887405395508,0.046902917325496674,0.056903429329395294,-0.03854042664170265
2026-05-01T09:12:23.864000+00:00,1777626743864,S009,43,50,1777626743817,1777626743862,1777626743864,message,1777626743776,0.011002771556377411,-0.002647995948791504,-0.018233776092529297,0.03433731943368912,0.06178877130150795,-0.03800236061215401
2026-05-01T09:12:23.864000+00:00,1777626743864,S009,43,50,1777626743817,1777626743862,1777626743864,message,1777626743796,0.014242313802242279,0.0015189647674560547,-0.019055068492889404,0.03001820668578148,0.048417117446660995,-0.02405267208814621
2026-05-01T09:12:23.864000+00:00,1777626743864,S009,43,50,1777626743817,1777626743862,1777626743864,message,1777626743816,0.007086731493473053,-0.02091282606124878,-0.026260316371917725,0.00944235548377037,0.03445115685462952,-0.014804471284151077
2026-05-01T09:12:24.188000+00:00,1777626744188,S009,44,50,1777626744019,1777626744180,1777626744188,message,1777626743836,0.015916839241981506,-0.001639723777770996,-0.026807188987731934,-0.030612118542194366,0.02950323186814785,-0.0005525643355213106
2026-05-01T09:12:24.188000+00:00,1777626744188,S009,44,50,1777626744019,1777626744180,1777626744188,message,1777626743856,0.02025582641363144,-0.009616196155548096,-0.0031360983848571777,-0.1111128181219101,0.03665385767817497,-0.013708793558180332
2026-05-01T09:12:24.188000+00:00,1777626744188,S009,44,50,1777626744019,1777626744180,1777626744188,message,1777626743876,0.04108906537294388,0.010733187198638916,0.02848738431930542,-0.09351038932800293,0.003065575612708926,-0.0011322812642902136
2026-05-01T09:12:24.188000+00:00,1777626744188,S009,44,50,1777626744019,1777626744180,1777626744188,message,1777626743896,0.02700655907392502,0.04689401388168335,0.04154956340789795,0.01401020959019661,-0.02737351693212986,0.0038581627886742353
2026-05-01T09:12:24.188000+00:00,1777626744188,S009,44,50,1777626744019,1777626744180,1777626744188,message,1777626743919,-0.006882727146148682,0.014448285102844238,0.03828197717666626,-0.01053534634411335,-0.02326224558055401,-0.0009356866357848048
2026-05-01T09:12:24.188000+00:00,1777626744188,S009,44,50,1777626744019,1777626744180,1777626744188,message,1777626743938,-0.019288286566734314,0.019874155521392822,0.038462162017822266,-0.020243367180228233,-0.03650074079632759,0.0028073329012840986
2026-05-01T09:12:24.188000+00:00,1777626744188,S009,44,50,1777626744019,1777626744180,1777626744188,message,1777626743957,-0.027719959616661072,0.03657299280166626,0.029351532459259033,0.008144862949848175,-0.029617955908179283,6.182689685374498e-05
2026-05-01T09:12:24.188000+00:00,1777626744188,S009,44,50,1777626744019,1777626744180,1777626744188,message,1777626743977,-0.02490813285112381,0.00846940279006958,0.03977096080780029,0.0796816349029541,-0.021930132061243057,-0.0010287908371537924
2026-05-01T09:12:24.188000+00:00,1777626744188,S009,44,50,1777626744019,1777626744180,1777626744188,message,1777626743997,-0.04958304017782211,-0.0033641457557678223,-0.013562560081481934,0.1965608447790146,0.0003517763689160347,0.0005386393750086427
2026-05-01T09:12:24.188000+00:00,1777626744188,S009,44,50,1777626744019,1777626744180,1777626744188,message,1777626744019,-0.04170934110879898,-0.01786428689956665,-0.039218127727508545,0.18686586618423462,0.02215130813419819,-0.015105567872524261
2026-05-01T09:12:24.306000+00:00,1777626744306,S009,45,50,1777626744220,1777626744304,1777626744306,message,1777626744037,-0.018672369420528412,-0.021679341793060303,-0.006689012050628662,0.03547235578298569,0.042451102286577225,-0.03335679695010185
2026-05-01T09:12:24.306000+00:00,1777626744306,S009,45,50,1777626744220,1777626744304,1777626744306,message,1777626744057,0.0076765939593315125,-0.08150631189346313,-0.033242642879486084,-0.5816201567649841,0.03146008402109146,-0.024671802297234535
2026-05-01T09:12:24.306000+00:00,1777626744306,S009,45,50,1777626744220,1777626744304,1777626744306,message,1777626744077,0.012876786291599274,-0.17723649740219116,-0.02471405267715454,-1.5274358987808228,0.07635576277971268,-0.0024617845192551613
2026-05-01T09:12:24.306000+00:00,1777626744306,S009,45,50,1777626744220,1777626744304,1777626744306,message,1777626744097,-0.026697903871536255,-0.07004308700561523,-0.06951051950454712,-1.6545203924179077,0.18270957469940186,-0.04567157104611397
2026-05-01T09:12:24.306000+00:00,1777626744306,S009,45,50,1777626744220,1777626744304,1777626744306,message,1777626744118,-0.03821434825658798,-0.04288792610168457,-0.07436120510101318,-1.2600239515304565,0.22703418135643005,-0.13247454166412354
2026-05-01T09:12:24.306000+00:00,1777626744306,S009,45,50,1777626744220,1777626744304,1777626744306,message,1777626744138,-0.0029588937759399414,0.11510711908340454,-0.03998923301696777,-0.5781210064888,0.1584823727607727,-0.09512694925069809
2026-05-01T09:12:24.306000+00:00,1777626744306,S009,45,50,1777626744220,1777626744304,1777626744306,message,1777626744158,0.04899778217077255,0.11802101135253906,0.03009873628616333,-0.038424234837293625,0.048715922981500626,-0.08367541432380676
2026-05-01T09:12:24.306000+00:00,1777626744306,S009,45,50,1777626744220,1777626744304,1777626744306,message,1777626744178,0.07741381227970123,0.10679024457931519,0.10435545444488525,0.18545866012573242,-0.06306113302707672,-0.03517227619886398
2026-05-01T09:12:24.306000+00:00,1777626744306,S009,45,50,1777626744220,1777626744304,1777626744306,message,1777626744198,0.06559829413890839,0.070895254611969,0.06933653354644775,0.45107996463775635,-0.11670704931020737,-0.01871899701654911
2026-05-01T09:12:24.306000+00:00,1777626744306,S009,45,50,1777626744220,1777626744304,1777626744306,message,1777626744219,0.021379873156547546,0.03055816888809204,0.020084500312805176,0.6844497919082642,-0.10518959909677505,-0.012668775394558907
2026-05-01T09:12:24.396000+00:00,1777626744396,S009,46,50,1777626744419,1777626744392,1777626744396,message,1777626744238,0.001440204679965973,0.03894317150115967,0.015027880668640137,0.8491639494895935,-0.08300520479679108,-0.012059764005243778
2026-05-01T09:12:24.396000+00:00,1777626744396,S009,46,50,1777626744419,1777626744392,1777626744396,message,1777626744258,0.01155351847410202,0.01292484998703003,0.04113811254501343,0.7632767558097839,-0.07777049392461777,0.01265021599829197
2026-05-01T09:12:24.396000+00:00,1777626744396,S009,46,50,1777626744419,1777626744392,1777626744396,message,1777626744278,-0.0018783435225486755,-0.010410130023956299,0.04015833139419556,0.5562570095062256,-0.04273946210741997,0.03370964154601097
2026-05-01T09:12:24.396000+00:00,1777626744396,S009,46,50,1777626744419,1777626744392,1777626744396,message,1777626744298,-0.04069174826145172,-0.05516839027404785,-0.010799407958984375,0.2528661787509918,0.010561536997556686,0.01705721579492092
2026-05-01T09:12:24.396000+00:00,1777626744396,S009,46,50,1777626744419,1777626744392,1777626744396,message,1777626744319,-0.051626838743686676,-0.04976922273635864,0.0019609928131103516,-0.008387241512537003,0.05217323824763298,0.010620035231113434
2026-05-01T09:12:24.396000+00:00,1777626744396,S009,46,50,1777626744419,1777626744392,1777626744396,message,1777626744339,-0.01995185762643814,0.011782944202423096,0.009392619132995605,0.08743169158697128,0.03665393218398094,0.02471822500228882
2026-05-01T09:12:24.396000+00:00,1777626744396,S009,46,50,1777626744419,1777626744392,1777626744396,message,1777626744358,-0.02024487406015396,0.007472217082977295,-0.021970808506011963,0.28424304723739624,0.04481823369860649,0.018501820042729378
2026-05-01T09:12:24.396000+00:00,1777626744396,S009,46,50,1777626744419,1777626744392,1777626744396,message,1777626744379,0.005857966840267181,-0.004646182060241699,-0.009036600589752197,0.1976625919342041,0.04359827935695648,0.02018914744257927
2026-05-01T09:12:24.396000+00:00,1777626744396,S009,46,50,1777626744419,1777626744392,1777626744396,message,1777626744399,0.0036186128854751587,-0.04212003946304321,-0.03357917070388794,0.14821408689022064,0.06550513952970505,0.004212150350213051
2026-05-01T09:12:24.396000+00:00,1777626744396,S009,46,50,1777626744419,1777626744392,1777626744396,message,1777626744419,-0.004402764141559601,-0.03814554214477539,-0.047031521797180176,0.17131353914737701,0.07569142431020737,-0.01728168874979019
2026-05-01T09:12:24.822000+00:00,1777626744822,S009,47,50,1777626744620,1777626744826,1777626744822,message,1777626744439,-0.005539238452911377,-0.018291354179382324,-0.03933870792388916,0.23391887545585632,0.06636902689933777,-0.015422376804053783
2026-05-01T09:12:24.822000+00:00,1777626744822,S009,47,50,1777626744620,1777626744826,1777626744822,message,1777626744459,-0.010475970804691315,-0.008403897285461426,-0.04473745822906494,0.3204135596752167,0.04647589847445488,-0.031424835324287415
2026-05-01T09:12:24.822000+00:00,1777626744822,S009,47,50,1777626744620,1777626744826,1777626744822,message,1777626744479,0.0006921291351318359,0.012940585613250732,0.006354689598083496,0.11596107482910156,0.0358254611492157,-0.037099603563547134
2026-05-01T09:12:24.822000+00:00,1777626744822,S009,47,50,1777626744620,1777626744826,1777626744822,message,1777626744499,0.02615368366241455,0.003212153911590576,0.03172743320465088,-0.07352043688297272,0.005413722712546587,-0.028833791613578796
2026-05-01T09:12:24.822000+00:00,1777626744822,S009,47,50,1777626744620,1777626744826,1777626744822,message,1777626744520,0.03895249217748642,0.06593024730682373,0.08623397350311279,-0.22719042003154755,-0.04245157912373543,-0.0075266375206410885
2026-05-01T09:12:24.822000+00:00,1777626744822,S009,47,50,1777626744620,1777626744826,1777626744822,message,1777626744539,0.034244559705257416,0.01718461513519287,0.09524917602539062,-0.31317752599716187,-0.06225796043872833,0.02680843323469162
2026-05-01T09:12:24.822000+00:00,1777626744822,S009,47,50,1777626744620,1777626744826,1777626744822,message,1777626744559,0.025942496955394745,0.03598618507385254,0.05046337842941284,-0.24948321282863617,-0.08659388870000839,0.0388840027153492
2026-05-01T09:12:24.822000+00:00,1777626744822,S009,47,50,1777626744620,1777626744826,1777626744822,message,1777626744580,0.015927769243717194,0.028908193111419678,0.03361213207244873,-0.16041965782642365,-0.11058680713176727,0.047238871455192566
2026-05-01T09:12:24.822000+00:00,1777626744822,S009,47,50,1777626744620,1777626744826,1777626744822,message,1777626744600,-0.043736234307289124,-0.009260177612304688,-0.028258800506591797,0.060124173760414124,-0.0402035266160965,0.022798458114266396
2026-05-01T09:12:24.822000+00:00,1777626744822,S009,47,50,1777626744620,1777626744826,1777626744822,message,1777626744620,-0.055518753826618195,-0.018811345100402832,-0.038398027420043945,0.16269342601299286,-0.002045677276328206,-0.001995838014408946
2026-05-01T09:12:24.853000+00:00,1777626744853,S009,48,50,1777626744821,1777626744827,1777626744853,message,1777626744640,-0.0747290626168251,-0.003747701644897461,-0.0655825138092041,0.2598956227302551,-0.008057382889091969,-0.012426055036485195
2026-05-01T09:12:24.853000+00:00,1777626744853,S009,48,50,1777626744821,1777626744827,1777626744853,message,1777626744660,-0.06604702770709991,-0.025922775268554688,-0.05818605422973633,0.32277655601501465,-0.005393080413341522,-0.02937510423362255
2026-05-01T09:12:24.853000+00:00,1777626744853,S009,48,50,1777626744821,1777626744827,1777626744853,message,1777626744680,0.0017007812857627869,0.00901949405670166,-0.01049351692199707,0.14179213345050812,0.0033497349359095097,-0.027910685166716576
2026-05-01T09:12:24.853000+00:00,1777626744853,S009,48,50,1777626744821,1777626744827,1777626744853,message,1777626744700,0.04215126484632492,-0.024520695209503174,0.022982656955718994,-0.14997872710227966,0.017578434199094772,-0.022978296503424644
2026-05-01T09:12:24.853000+00:00,1777626744853,S009,48,50,1777626744821,1777626744827,1777626744853,message,1777626744721,0.06670010834932327,-0.014992594718933105,0.03797632455825806,-0.4205697178840637,0.015036066062748432,-0.029262878000736237
