local_ts,local_ts_ms,session_id,sequence,sample_rate_hz,watch_sent_at,phone_received_at,server_received_ms,source,ts,ax,ay,az,rx,ry,rz
2026-05-01T11:20:26.529000+00:00,1777634426529,S010,0,50,1777634426178,,1777634426529,watch_direct,1777634426018,-0.00030420348048210144,-0.002489447593688965,0.00010055303573608398,0.041130177676677704,0.01953655667603016,0.004730734508484602
2026-05-01T11:20:26.529000+00:00,1777634426529,S010,0,50,1777634426178,,1777634426529,watch_direct,1777634426027,0.0024823620915412903,-0.0025968849658966064,-0.0022017955780029297,0.021938104182481766,0.009116177447140217,0.0019262658897787333
2026-05-01T11:20:26.529000+00:00,1777634426529,S010,0,50,1777634426178,,1777634426529,watch_direct,1777634426037,0.003930527716875076,-0.00505375862121582,0.0002570152282714844,-0.014905929565429688,-0.005057317670434713,0.003684005467221141
2026-05-01T11:20:26.529000+00:00,1777634426529,S010,0,50,1777634426178,,1777634426529,watch_direct,1777634426057,0.003981191664934158,0.005823612213134766,0.0024733543395996094,0.0012309625744819641,-0.006814128253608942,0.008672106079757214
2026-05-01T11:20:26.529000+00:00,1777634426529,S010,0,50,1777634426178,,1777634426529,watch_direct,1777634426077,-0.0008519589900970459,0.01893073320388794,-0.00948256254196167,0.06976555287837982,0.006355659104883671,0.02329040877521038
2026-05-01T11:20:26.529000+00:00,1777634426529,S010,0,50,1777634426178,,1777634426529,watch_direct,1777634426098,-0.001529507339000702,0.0010505318641662598,-0.005090057849884033,0.0878036767244339,0.012834901921451092,0.018718721345067024
2026-05-01T11:20:26.529000+00:00,1777634426529,S010,0,50,1777634426178,,1777634426529,watch_direct,1777634426117,-0.0014007706195116043,-0.010244190692901611,0.0009034276008605957,0.04392756149172783,0.01445741392672062,0.006815456785261631
2026-05-01T11:20:26.529000+00:00,1777634426529,S010,0,50,1777634426178,,1777634426529,watch_direct,1777634426137,0.004074724391102791,-0.003313511610031128,0.0017733573913574219,0.004117297008633614,-0.0044344039633870125,0.0016061540227383375
2026-05-01T11:20:26.529000+00:00,1777634426529,S010,0,50,1777634426178,,1777634426529,watch_direct,1777634426157,-0.0009811576455831528,0.00692787766456604,0.0017946958541870117,0.011822622269392014,-0.0046300701797008514,0.003030305728316307
2026-05-01T11:20:26.529000+00:00,1777634426529,S010,0,50,1777634426178,,1777634426529,watch_direct,1777634426177,0.0020991601049900055,0.008477091789245605,0.0025766491889953613,0.039806582033634186,-0.006494701374322176,0.00147177092730999
2026-05-01T11:20:26.839000+00:00,1777634426839,S010,1,50,1777634426849,,1777634426839,watch_direct,1777634426197,-0.0030584782361984253,0.004897892475128174,-0.004732787609100342,0.058887071907520294,0.010428659617900848,0.00579871516674757
2026-05-01T11:20:26.839000+00:00,1777634426839,S010,1,50,1777634426849,,1777634426839,watch_direct,1777634426218,-0.0013415459543466568,-0.016045182943344116,0.00018858909606933594,0.014004014432430267,0.006870448589324951,-0.0031195187475532293
2026-05-01T11:20:26.839000+00:00,1777634426839,S010,1,50,1777634426849,,1777634426839,watch_direct,1777634426238,-0.00037869252264499664,-0.007615149021148682,-0.005503475666046143,-0.022520171478390694,0.015721691772341728,-0.004704738967120647
2026-05-01T11:20:26.839000+00:00,1777634426839,S010,1,50,1777634426849,,1777634426839,watch_direct,1777634426258,0.0041787344962358475,-0.010104835033416748,0.0007094144821166992,-0.051895901560783386,0.00651567755267024,-0.008720519952476025
2026-05-01T11:20:26.839000+00:00,1777634426839,S010,1,50,1777634426849,,1777634426839,watch_direct,1777634426279,0.0008432026952505112,0.012397170066833496,-0.0017611980438232422,-0.023899156600236893,0.0031853944528847933,-0.0019044248620048165
2026-05-01T11:20:26.839000+00:00,1777634426839,S010,1,50,1777634426849,,1777634426839,watch_direct,1777634426305,0.0025023072957992554,0.006611883640289307,-0.0022075772285461426,0.0036986488848924637,-0.0002881664549931884,0.004333763383328915
2026-05-01T11:20:26.839000+00:00,1777634426839,S010,1,50,1777634426849,,1777634426839,watch_direct,1777634426318,-0.001106712967157364,0.0010788142681121826,-0.0005141496658325195,0.007690193131566048,0.003672752995043993,0.005810752511024475
2026-05-01T11:20:26.839000+00:00,1777634426839,S010,1,50,1777634426849,,1777634426839,watch_direct,1777634426338,-0.0010328441858291626,0.0031845271587371826,-0.0005025863647460938,0.01618514582514763,0.002260973211377859,0.004370089154690504
2026-05-01T11:20:26.839000+00:00,1777634426839,S010,1,50,1777634426849,,1777634426839,watch_direct,1777634426358,-0.00014051049947738647,0.006662309169769287,-0.0038726329803466797,0.033373184502124786,0.004489202052354813,0.0008463007980026305
2026-05-01T11:20:26.839000+00:00,1777634426839,S010,1,50,1777634426849,,1777634426839,watch_direct,1777634426382,0.002077801153063774,0.012053519487380981,-0.030637621879577637,0.03735914081335068,-0.002631367649883032,-0.006121274549514055
2026-05-01T11:20:27.044000+00:00,1777634427044,S010,2,50,1777634427058,,1777634427044,watch_direct,1777634426402,0.0018446333706378937,-0.006109327077865601,-0.006034672260284424,0.016217900440096855,-0.0001909231359604746,-0.004569556564092636
2026-05-01T11:20:27.044000+00:00,1777634427044,S010,2,50,1777634427058,,1777634427044,watch_direct,1777634426423,0.002008110284805298,0.004159599542617798,-0.0014522075653076172,0.03331645950675011,0.004749126732349396,0.0009630005806684494
2026-05-01T11:20:27.044000+00:00,1777634427044,S010,2,50,1777634427058,,1777634427044,watch_direct,1777634426444,0.0017888806760311127,0.010251224040985107,-0.005645394325256348,0.062304701656103134,0.008276787586510181,0.0024514412507414818
2026-05-01T11:20:27.044000+00:00,1777634427044,S010,2,50,1777634427058,,1777634427044,watch_direct,1777634426463,0.005823539569973946,0.0025378167629241943,0.0025120973587036133,0.0577152781188488,-0.0050387512892484665,0.0022122894879430532
2026-05-01T11:20:27.044000+00:00,1777634427044,S010,2,50,1777634427058,,1777634427044,watch_direct,1777634426483,0.0007148981094360352,-0.0010034143924713135,-0.0010935664176940918,0.049365732818841934,-0.008157312870025635,-0.0008951402269303799
2026-05-01T11:20:27.044000+00:00,1777634427044,S010,2,50,1777634427058,,1777634427044,watch_direct,1777634426503,0.0001541469246149063,0.005402803421020508,-0.006510376930236816,0.06451912224292755,-0.0073103513568639755,0.008110019378364086
2026-05-01T11:20:27.044000+00:00,1777634427044,S010,2,50,1777634427058,,1777634427044,watch_direct,1777634426523,-0.004842046648263931,0.0004527270793914795,-0.0068312883377075195,0.07331394404172897,0.006626160815358162,0.001537071424536407
2026-05-01T11:20:27.044000+00:00,1777634427044,S010,2,50,1777634427058,,1777634427044,watch_direct,1777634426544,-0.0007026493549346924,-0.005570858716964722,0.004014909267425537,0.03684994578361511,0.004628485534340143,-0.008082212880253792
2026-05-01T11:20:27.044000+00:00,1777634427044,S010,2,50,1777634427058,,1777634427044,watch_direct,1777634426563,0.0029102731496095657,-0.004303455352783203,0.0044858455657958984,0.006131445989012718,0.0008690911927260458,-0.007727160584181547
2026-05-01T11:20:27.044000+00:00,1777634427044,S010,2,50,1777634427058,,1777634427044,watch_direct,1777634426583,0.001091737300157547,0.007428020238876343,-0.0028005242347717285,0.020244333893060684,0.008458263240754604,0.006665840744972229
2026-05-01T11:20:27.372000+00:00,1777634427372,S010,3,50,1777634427343,,1777634427372,watch_direct,1777634426603,0.0014390833675861359,-0.0041935741901397705,-0.00157088041305542,0.028857000172138214,0.0032075748313218355,-0.0010123193496838212
2026-05-01T11:20:27.372000+00:00,1777634427372,S010,3,50,1777634427343,,1777634427372,watch_direct,1777634426623,0.0013950169086456299,-0.0007202327251434326,-0.008443892002105713,0.027958448976278305,-0.00442272424697876,0.004567216150462627
2026-05-01T11:20:27.372000+00:00,1777634427372,S010,3,50,1777634427343,,1777634427372,watch_direct,1777634426644,0.003013456240296364,-0.0058151185512542725,0.0025956034660339355,0.01088918186724186,-0.002880183281376958,0.001686794450506568
2026-05-01T11:20:27.372000+00:00,1777634427372,S010,3,50,1777634427343,,1777634427372,watch_direct,1777634426664,-0.0008484553545713425,0.0025750696659088135,-0.004183292388916016,0.007419085130095482,-0.008177057839930058,0.00012964417692273855
2026-05-01T11:20:27.372000+00:00,1777634427372,S010,3,50,1777634427343,,1777634427372,watch_direct,1777634426684,-0.0009961482137441635,0.0029854178428649902,9.942054748535156e-05,0.01685386337339878,0.0072819446213543415,-0.00021145344362594187
2026-05-01T11:20:27.372000+00:00,1777634427372,S010,3,50,1777634427343,,1777634427372,watch_direct,1777634426704,-0.0028510335832834244,0.009323179721832275,-0.00525277853012085,0.047458648681640625,0.008997743017971516,0.000934185110963881
2026-05-01T11:20:27.372000+00:00,1777634427372,S010,3,50,1777634427343,,1777634427372,watch_direct,1777634426724,0.0004093348979949951,-0.0007488131523132324,-0.002930879592895508,0.05657996982336044,0.006025123409926891,0.001965893665328622
2026-05-01T11:20:27.372000+00:00,1777634427372,S010,3,50,1777634427343,,1777634427372,watch_direct,1777634426744,0.0016389265656471252,0.0006856620311737061,-0.0070288777351379395,0.060511596500873566,0.009073111228644848,-0.00019520816567819566
2026-05-01T11:20:27.372000+00:00,1777634427372,S010,3,50,1777634427343,,1777634427372,watch_direct,1777634426764,0.005392355844378471,-0.005906015634536743,0.00031954050064086914,0.027675887569785118,-0.006797312758862972,-0.0016089206328615546
2026-05-01T11:20:27.372000+00:00,1777634427372,S010,3,50,1777634427343,,1777634427372,watch_direct,1777634426784,0.0016208980232477188,0.0003280341625213623,0.0008584260940551758,0.0060984231531620026,-0.016604935750365257,0.0013916629832237959
2026-05-01T11:20:28.386000+00:00,1777634428386,S010,4,50,1777634428408,,1777634428386,watch_direct,1777634426804,-0.002558201551437378,0.013136893510818481,-0.005610764026641846,0.06499583274126053,-0.0031645705457776785,0.004414882976561785
2026-05-01T11:20:28.386000+00:00,1777634428386,S010,4,50,1777634428408,,1777634428386,watch_direct,1777634426824,-0.0023843031376600266,0.003672957420349121,-0.00852060317993164,0.09524401277303696,0.010898593813180923,0.0013810634845867753
2026-05-01T11:20:28.386000+00:00,1777634428386,S010,4,50,1777634428408,,1777634428386,watch_direct,1777634426845,-0.0011070668697357178,-0.0007003545761108398,-0.010092318058013916,0.08532346785068512,0.010636196471750736,-0.0002455952053423971
2026-05-01T11:20:28.386000+00:00,1777634428386,S010,4,50,1777634428408,,1777634428386,watch_direct,1777634426865,0.005387241020798683,-0.010380715131759644,0.007815420627593994,0.029090555384755135,-0.006327340845018625,-0.006352596450597048
2026-05-01T11:20:28.386000+00:00,1777634428386,S010,4,50,1777634428408,,1777634428386,watch_direct,1777634426885,0.0010418258607387543,0.006704777479171753,0.00013458728790283203,0.0252689216285944,-0.0024839427787810564,-0.005072521511465311
2026-05-01T11:20:28.386000+00:00,1777634428386,S010,4,50,1777634428408,,1777634428386,watch_direct,1777634426905,-0.0006470289081335068,0.0068451762199401855,-0.001326918601989746,0.055326953530311584,0.0004176853981334716,0.0018960655434057117
2026-05-01T11:20:28.386000+00:00,1777634428386,S010,4,50,1777634428408,,1777634428386,watch_direct,1777634426925,-0.0005955062806606293,-0.009091466665267944,0.005793213844299316,0.024088606238365173,0.000880048144608736,0.004325987305492163
2026-05-01T11:20:28.386000+00:00,1777634428386,S010,4,50,1777634428408,,1777634428386,watch_direct,1777634426945,-0.0025295130908489227,-0.018580496311187744,0.002492070198059082,-0.042929843068122864,0.008989297784864902,-0.0016157383797690272
2026-05-01T11:20:28.386000+00:00,1777634428386,S010,4,50,1777634428408,,1777634428386,watch_direct,1777634426965,5.582161247730255e-05,-0.010123997926712036,0.0007339119911193848,-0.09219272434711456,0.0024068765342235565,-0.013965722173452377
2026-05-01T11:20:28.386000+00:00,1777634428386,S010,4,50,1777634428408,,1777634428386,watch_direct,1777634426985,0.0029673874378204346,-0.014408349990844727,0.007049679756164551,-0.1589754819869995,-0.007685819175094366,0.0073276362381875515
2026-05-01T11:20:28.814000+00:00,1777634428814,S010,5,50,1777634428788,,1777634428814,watch_direct,1777634427005,0.007453566417098045,-0.013344377279281616,0.013250350952148438,-0.2014864683151245,-0.021504316478967667,0.005294579081237316
2026-05-01T11:20:28.814000+00:00,1777634428814,S010,5,50,1777634428788,,1777634428814,watch_direct,1777634427026,-0.005739741027355194,0.00873538851737976,0.012142777442932129,-0.21356363594532013,-0.023397745564579964,0.009252302348613739
2026-05-01T11:20:28.814000+00:00,1777634428814,S010,5,50,1777634428788,,1777634428814,watch_direct,1777634427046,-0.007350625470280647,0.004587620496749878,-0.0018135905265808105,-0.16212201118469238,-0.006899653933942318,0.010992624796926975
2026-05-01T11:20:28.814000+00:00,1777634428814,S010,5,50,1777634428788,,1777634428814,watch_direct,1777634427066,-0.013026842847466469,0.030916571617126465,-0.013198554515838623,-0.021188590675592422,0.012919590808451176,0.007725724950432777
2026-05-01T11:20:28.814000+00:00,1777634428814,S010,5,50,1777634428788,,1777634428814,watch_direct,1777634427086,-0.0028682760894298553,0.027533352375030518,0.0002962946891784668,0.014598168432712555,0.012947325594723225,-0.01025061123073101
2026-05-01T11:20:28.814000+00:00,1777634428814,S010,5,50,1777634428788,,1777634428814,watch_direct,1777634427106,-0.003666140139102936,-0.012001574039459229,-0.005823850631713867,-0.018321434035897255,0.022009605541825294,-0.02213006652891636
2026-05-01T11:20:28.814000+00:00,1777634428814,S010,5,50,1777634428788,,1777634428814,watch_direct,1777634427126,0.0032816212624311447,-0.01829773187637329,-0.007600605487823486,-0.060924820601940155,0.02239595353603363,-0.03311188146471977
2026-05-01T11:20:28.814000+00:00,1777634428814,S010,5,50,1777634428788,,1777634428814,watch_direct,1777634427147,0.008855784311890602,0.00888773798942566,-0.004009604454040527,0.006250755861401558,-0.04385074973106384,-0.02211526222527027
2026-05-01T11:20:28.814000+00:00,1777634428814,S010,5,50,1777634428788,,1777634428814,watch_direct,1777634427166,-0.004530847072601318,0.03805401921272278,-0.00615084171295166,0.11949395388364792,-0.02036920003592968,0.010545533150434494
2026-05-01T11:20:28.814000+00:00,1777634428814,S010,5,50,1777634428788,,1777634428814,watch_direct,1777634427186,0.01114949956536293,-0.004036754369735718,-0.001489877700805664,0.06893064081668854,-0.015650572255253792,-0.020819151774048805
2026-05-01T11:20:28.987000+00:00,1777634428987,S010,6,50,1777634429026,,1777634428987,watch_direct,1777634427207,0.002137206494808197,-0.02668645977973938,-0.005923867225646973,-0.02178087830543518,-0.003699295222759247,-0.018010476604104042
2026-05-01T11:20:28.987000+00:00,1777634428987,S010,6,50,1777634429026,,1777634428987,watch_direct,1777634427227,0.00448194332420826,-0.01766514778137207,-0.0009641647338867188,-0.071591317653656,-0.008832653053104877,-0.023234855383634567
2026-05-01T11:20:28.987000+00:00,1777634428987,S010,6,50,1777634429026,,1777634428987,watch_direct,1777634427247,-0.003182319924235344,0.0021056532859802246,-0.004984736442565918,-0.04776081442832947,0.0025461597833782434,-0.022977644577622414
2026-05-01T11:20:28.987000+00:00,1777634428987,S010,6,50,1777634429026,,1777634428987,watch_direct,1777634427267,0.00047156959772109985,0.03493955731391907,-0.0015083551406860352,0.04338400810956955,-0.0019588815048336983,-0.006490921135991812
2026-05-01T11:20:28.987000+00:00,1777634428987,S010,6,50,1777634429026,,1777634428987,watch_direct,1777634427287,-0.0027373172342777252,0.011208683252334595,9.59634780883789e-06,0.07264868170022964,0.003970037680119276,-0.007499726023525
2026-05-01T11:20:28.987000+00:00,1777634428987,S010,6,50,1777634429026,,1777634428987,watch_direct,1777634427308,0.0025811828672885895,-0.010496288537979126,-0.0036070942878723145,0.034932732582092285,0.006053162273019552,-0.007681460119783878
2026-05-01T11:20:28.987000+00:00,1777634428987,S010,6,50,1777634429026,,1777634428987,watch_direct,1777634427327,0.004071163013577461,-0.016778916120529175,-0.005874991416931152,-0.014295266009867191,0.0048690065741539,-0.016118887811899185
2026-05-01T11:20:28.987000+00:00,1777634428987,S010,6,50,1777634429026,,1777634428987,watch_direct,1777634427352,0.005560839548707008,0.00013241171836853027,0.00047212839126586914,-0.03316988795995712,-0.004575589671730995,-0.010034043341875076
2026-05-01T11:20:28.987000+00:00,1777634428987,S010,6,50,1777634429026,,1777634428987,watch_direct,1777634427367,0.0010473132133483887,0.0033838748931884766,-0.001423180103302002,-0.022123893722891808,-0.002069554990157485,-0.004547345917671919
2026-05-01T11:20:28.987000+00:00,1777634428987,S010,6,50,1777634429026,,1777634428987,watch_direct,1777634427387,-0.0023377835750579834,0.00045612454414367676,-0.001995682716369629,-0.029950391501188278,0.007423777598887682,0.003944516181945801
2026-05-01T11:20:29.289000+00:00,1777634429289,S010,7,50,1777634429223,,1777634429289,watch_direct,1777634427408,0.002239774912595749,-0.002720266580581665,-0.0007802248001098633,-0.04000435769557953,0.007798788603395224,0.004774090833961964
2026-05-01T11:20:29.289000+00:00,1777634429289,S010,7,50,1777634429223,,1777634429289,watch_direct,1777634427428,-0.0001949109137058258,0.007571220397949219,-0.003924131393432617,-0.02328583225607872,0.009004934690892696,0.005697461776435375
2026-05-01T11:20:29.289000+00:00,1777634429289,S010,7,50,1777634429223,,1777634429289,watch_direct,1777634427448,0.0021354295313358307,0.009554386138916016,-0.006933271884918213,0.013853546231985092,0.006746687460690737,0.014568984508514404
2026-05-01T11:20:29.289000+00:00,1777634429289,S010,7,50,1777634429223,,1777634429289,watch_direct,1777634427468,0.002710573375225067,0.006930708885192871,0.0028916597366333008,0.024941084906458855,-0.00016372078971471637,0.00836941134184599
2026-05-01T11:20:29.289000+00:00,1777634429289,S010,7,50,1777634429223,,1777634429289,watch_direct,1777634427488,-0.0018805228173732758,0.004141777753829956,0.000518798828125,0.03416574373841286,-0.0006572805577889085,0.008099100552499294
2026-05-01T11:20:29.289000+00:00,1777634429289,S010,7,50,1777634429223,,1777634429289,watch_direct,1777634427508,-0.0043142568320035934,0.013337582349777222,-0.0010235309600830078,0.06277288496494293,0.0032012593001127243,0.014500487595796585
2026-05-01T11:20:29.289000+00:00,1777634429289,S010,7,50,1777634429223,,1777634429289,watch_direct,1777634427530,0.00014875084161758423,-0.0020106732845306396,0.0016314983367919922,0.053898971527814865,0.0035406220704317093,0.003027483122423291
2026-05-01T11:20:29.289000+00:00,1777634429289,S010,7,50,1777634429223,,1777634429289,watch_direct,1777634427548,-0.003190135583281517,-0.003950536251068115,-0.004648983478546143,0.03901189565658569,0.010315475054085255,0.00443246029317379
2026-05-01T11:20:29.289000+00:00,1777634429289,S010,7,50,1777634429223,,1777634429289,watch_direct,1777634427568,0.0022122319787740707,-0.006614565849304199,0.002612888813018799,0.000624561682343483,0.008008379489183426,-0.0038477336056530476
2026-05-01T11:20:29.289000+00:00,1777634429289,S010,7,50,1777634429223,,1777634429289,watch_direct,1777634427588,0.0008453801274299622,-0.0037729740142822266,-0.003972172737121582,-0.013292851857841015,0.008702779188752174,-0.002479774411767721
2026-05-01T11:20:29.586000+00:00,1777634429586,S010,8,50,1777634429527,,1777634429586,watch_direct,1777634427608,0.0003111939877271652,-0.00666472315788269,-9.560585021972656e-05,-0.05091746151447296,0.004627458285540342,-0.005380808841437101
2026-05-01T11:20:29.586000+00:00,1777634429586,S010,8,50,1777634429527,,1777634429586,watch_direct,1777634427629,0.0011952556669712067,-0.010755687952041626,-0.0064736008644104,-0.05589863657951355,0.012657725252211094,-0.013315591029822826
2026-05-01T11:20:29.586000+00:00,1777634429586,S010,8,50,1777634429527,,1777634429586,watch_direct,1777634427649,-0.004753641784191132,0.009845495223999023,-0.0063484907150268555,-0.01883329264819622,0.021702542901039124,-0.006002337206155062
2026-05-01T11:20:29.586000+00:00,1777634429586,S010,8,50,1777634429527,,1777634429586,watch_direct,1777634427669,-0.004368539899587631,0.015924900770187378,-0.0015861988067626953,0.036271773278713226,0.017892321571707726,-0.018599355593323708
2026-05-01T11:20:29.586000+00:00,1777634429586,S010,8,50,1777634429527,,1777634429586,watch_direct,1777634427689,-0.0051069967448711395,0.011384457349777222,0.00038117170333862305,0.08839169144630432,0.008338953368365765,-0.03381473943591118
2026-05-01T11:20:29.586000+00:00,1777634429586,S010,8,50,1777634429527,,1777634429586,watch_direct,1777634427709,0.001393863931298256,-0.004200577735900879,0.001461029052734375,0.023192189633846283,0.0061931307427585125,-0.038955919444561005
2026-05-01T11:20:29.586000+00:00,1777634429586,S010,8,50,1777634429527,,1777634429586,watch_direct,1777634427730,-0.0006474945694208145,0.004367232322692871,0.0025597810745239258,-0.01145686861127615,0.0025975205935537815,-0.044450923800468445
2026-05-01T11:20:29.586000+00:00,1777634429586,S010,8,50,1777634429527,,1777634429586,watch_direct,1777634427749,0.003730686381459236,0.000244140625,-0.004471719264984131,0.0038736164569854736,0.002098482334986329,-0.024024108424782753
2026-05-01T11:20:29.586000+00:00,1777634429586,S010,8,50,1777634429527,,1777634429586,watch_direct,1777634427769,0.0006921123713254929,0.00788930058479309,-0.00458294153213501,0.05157003179192543,-0.0013661760604009032,-0.005965106654912233
2026-05-01T11:20:29.586000+00:00,1777634429586,S010,8,50,1777634429527,,1777634429586,watch_direct,1777634427789,0.005376847460865974,0.004558175802230835,-0.0004246830940246582,0.0662752091884613,-0.009002790786325932,0.004550651181489229
2026-05-01T11:20:29.967000+00:00,1777634429967,S010,9,50,1777634429958,,1777634429967,watch_direct,1777634427809,0.004390981048345566,-0.015893399715423584,-0.015173673629760742,0.02111918479204178,-0.0006210997235029936,0.004876462742686272
2026-05-01T11:20:29.967000+00:00,1777634429967,S010,9,50,1777634429958,,1777634429967,watch_direct,1777634427831,-0.0005125086754560471,-0.018308579921722412,-0.015256166458129883,-0.038047730922698975,0.01344252098351717,-0.0009100006427615881
2026-05-01T11:20:29.967000+00:00,1777634429967,S010,9,50,1777634429958,,1777634429967,watch_direct,1777634427850,-0.006849082186818123,0.021667301654815674,-0.008329510688781738,-0.03128783032298088,0.00903594121336937,-0.014510338194668293
2026-05-01T11:20:29.967000+00:00,1777634429967,S010,9,50,1777634429958,,1777634429967,watch_direct,1777634427870,-0.008167041465640068,0.0021488070487976074,-0.0032813549041748047,-0.075609490275383,-0.005873766262084246,0.011318382807075977
2026-05-01T11:20:29.967000+00:00,1777634429967,S010,9,50,1777634429958,,1777634429967,watch_direct,1777634427890,-0.03034406714141369,-0.04554864764213562,-0.045094847679138184,-0.2691941261291504,0.02969229407608509,0.007632035296410322
2026-05-01T11:20:29.967000+00:00,1777634429967,S010,9,50,1777634429958,,1777634429967,watch_direct,1777634427910,-0.03987067937850952,-0.06271976232528687,-0.0421028733253479,-0.4585510194301605,0.09846176952123642,0.0197321604937315
2026-05-01T11:20:29.967000+00:00,1777634429967,S010,9,50,1777634429958,,1777634429967,watch_direct,1777634427931,-0.024358700960874557,-0.014943748712539673,-0.0334165096282959,-0.7316936254501343,0.13734488189220428,0.04310736432671547
2026-05-01T11:20:29.967000+00:00,1777634429967,S010,9,50,1777634429958,,1777634429967,watch_direct,1777634427950,-0.008885756134986877,-0.009371668100357056,-0.021785855293273926,-1.1180850267410278,0.1700531393289566,0.057481084018945694
2026-05-01T11:20:29.967000+00:00,1777634429967,S010,9,50,1777634429958,,1777634429967,watch_direct,1777634427970,0.014374174177646637,-0.0024546682834625244,-0.017637312412261963,-1.3562538623809814,0.19778196513652802,0.06962339580059052
2026-05-01T11:20:29.967000+00:00,1777634429967,S010,9,50,1777634429958,,1777634429967,watch_direct,1777634427990,0.006263144314289093,0.015198618173599243,-0.05124950408935547,-1.2273962497711182,0.23906077444553375,0.04150504618883133
2026-05-01T11:20:30.195000+00:00,1777634430195,S010,10,50,1777634430130,,1777634430195,watch_direct,1777634428010,-0.00013379007577896118,0.05334782600402832,-0.0711294412612915,-0.8980077505111694,0.29554450511932373,0.06960751861333847
2026-05-01T11:20:30.195000+00:00,1777634430195,S010,10,50,1777634430130,,1777634430195,watch_direct,1777634428031,0.0015825405716896057,0.07455402612686157,-0.039979398250579834,-0.5794380307197571,0.3234397768974304,0.11749627441167831
2026-05-01T11:20:30.195000+00:00,1777634430195,S010,10,50,1777634430130,,1777634430195,watch_direct,1777634428050,0.00836581364274025,0.05104959011077881,-0.012691020965576172,-0.35893869400024414,0.3116828203201294,0.13326549530029297
2026-05-01T11:20:30.195000+00:00,1777634430195,S010,10,50,1777634430130,,1777634430195,watch_direct,1777634428071,-0.003859691321849823,0.0558510422706604,-0.010871410369873047,-0.21057982742786407,0.3089297115802765,0.1814710944890976
2026-05-01T11:20:30.195000+00:00,1777634430195,S010,10,50,1777634430130,,1777634430195,watch_direct,1777634428091,-0.01448378711938858,0.06272101402282715,-0.0008873939514160156,-0.0348237082362175,0.29814469814300537,0.19588178396224976
2026-05-01T11:20:30.195000+00:00,1777634430195,S010,10,50,1777634430130,,1777634430195,watch_direct,1777634428111,-0.032719552516937256,0.05578279495239258,-0.021826624870300293,0.18394485116004944,0.295993834733963,0.17867408692836761
2026-05-01T11:20:30.195000+00:00,1777634430195,S010,10,50,1777634430130,,1777634430195,watch_direct,1777634428131,0.003071993589401245,0.013458430767059326,0.020009279251098633,0.21613633632659912,0.27206915616989136,0.21528449654579163
2026-05-01T11:20:30.195000+00:00,1777634430195,S010,10,50,1777634430130,,1777634430195,watch_direct,1777634428151,-0.011064410209655762,0.02818894386291504,0.012648582458496094,0.286194771528244,0.2990162670612335,0.2732595205307007
2026-05-01T11:20:30.195000+00:00,1777634430195,S010,10,50,1777634430130,,1777634430195,watch_direct,1777634428171,-0.03405812382698059,0.10238957405090332,-0.0394366979598999,0.5803468227386475,0.3167184591293335,0.30354464054107666
2026-05-01T11:20:30.195000+00:00,1777634430195,S010,10,50,1777634430130,,1777634430195,watch_direct,1777634428191,-0.011138096451759338,0.07234987616539001,-0.02212458848953247,0.6352124214172363,0.3188852369785309,0.3514625132083893
2026-05-01T11:20:30.495000+00:00,1777634430495,S010,11,50,1777634430475,,1777634430495,watch_direct,1777634428211,0.0051555335521698,0.00796961784362793,0.03165310621261597,0.39146101474761963,0.3218500018119812,0.3843449652194977
2026-05-01T11:20:30.495000+00:00,1777634430495,S010,11,50,1777634430475,,1777634430495,watch_direct,1777634428232,0.010221794247627258,0.02268245816230774,0.04120880365371704,0.1632920354604721,0.3095785975456238,0.43234312534332275
2026-05-01T11:20:30.495000+00:00,1777634430495,S010,11,50,1777634430475,,1777634430495,watch_direct,1777634428251,-0.010102137923240662,0.07337018847465515,-0.026884019374847412,0.0873946100473404,0.3525162637233734,0.4441254436969757
2026-05-01T11:20:30.495000+00:00,1777634430495,S010,11,50,1777634430475,,1777634430495,watch_direct,1777634428272,-0.01630207896232605,0.0627710223197937,-0.04679739475250244,0.11076545715332031,0.37428390979766846,0.4824797809123993
2026-05-01T11:20:30.495000+00:00,1777634430495,S010,11,50,1777634430475,,1777634430495,watch_direct,1777634428292,-0.03822357952594757,0.10150903463363647,-0.07095217704772949,0.2033020257949829,0.4091624319553375,0.5194510221481323
2026-05-01T11:20:30.495000+00:00,1777634430495,S010,11,50,1777634430475,,1777634430495,watch_direct,1777634428312,-0.017264485359191895,0.04622340202331543,-0.04316353797912598,0.15175841748714447,0.4586787521839142,0.61552894115448
2026-05-01T11:20:30.495000+00:00,1777634430495,S010,11,50,1777634430475,,1777634430495,watch_direct,1777634428334,-0.008300557732582092,0.03680694103240967,0.033787667751312256,0.08053750544786453,0.43823644518852234,0.6405910849571228
2026-05-01T11:20:30.495000+00:00,1777634430495,S010,11,50,1777634430475,,1777634430495,watch_direct,1777634428352,-0.02748952805995941,0.0902080237865448,0.008513152599334717,0.21668948233127594,0.47438356280326843,0.7401703596115112
2026-05-01T11:20:30.495000+00:00,1777634430495,S010,11,50,1777634430475,,1777634430495,watch_direct,1777634428372,0.0020198822021484375,0.017067164182662964,0.02751612663269043,-0.035050880163908005,0.45965614914894104,0.7106792330741882
2026-05-01T11:20:30.495000+00:00,1777634430495,S010,11,50,1777634430475,,1777634430495,watch_direct,1777634428392,-0.0005080699920654297,0.027522951364517212,0.06805109977722168,-0.5975104570388794,0.42667660117149353,0.8158158659934998
2026-05-01T11:20:30.785000+00:00,1777634430785,S010,12,50,1777634430720,,1777634430785,watch_direct,1777634428413,-0.012071982026100159,0.03086787462234497,0.07073813676834106,-0.9925252199172974,0.39121365547180176,0.7821157574653625
2026-05-01T11:20:30.785000+00:00,1777634430785,S010,12,50,1777634430720,,1777634430785,watch_direct,1777634428432,-0.01632055640220642,-0.07033634185791016,0.06295281648635864,-1.4894318580627441,0.31605711579322815,0.7485661506652832
2026-05-01T11:20:30.785000+00:00,1777634430785,S010,12,50,1777634430720,,1777634430785,watch_direct,1777634428452,-0.021055221557617188,-0.021374285221099854,0.08129799365997314,-1.9199577569961548,0.29361677169799805,0.8141668438911438
2026-05-01T11:20:30.785000+00:00,1777634430785,S010,12,50,1777634430720,,1777634430785,watch_direct,1777634428472,-0.010296642780303955,-0.04670858383178711,0.09171032905578613,-2.269068479537964,0.1871894747018814,0.6598169207572937
2026-05-01T11:20:30.785000+00:00,1777634430785,S010,12,50,1777634430720,,1777634430785,watch_direct,1777634428493,-0.04403185844421387,-0.15302664041519165,0.09282511472702026,-2.6119561195373535,0.07842551916837692,0.511478841304779
2026-05-01T11:20:30.785000+00:00,1777634430785,S010,12,50,1777634430720,,1777634430785,watch_direct,1777634428513,-0.04305434226989746,-0.21115529537200928,0.042424023151397705,-3.006526231765747,-0.03298143669962883,0.3907168507575989
2026-05-01T11:20:30.785000+00:00,1777634430785,S010,12,50,1777634430720,,1777634430785,watch_direct,1777634428533,0.0027835071086883545,-0.2249944806098938,0.10500550270080566,-3.269191026687622,-0.22306954860687256,0.26541951298713684
2026-05-01T11:20:30.785000+00:00,1777634430785,S010,12,50,1777634430720,,1777634430785,watch_direct,1777634428553,-0.0033905208110809326,-0.20958960056304932,0.17751455307006836,-3.02653169631958,-0.4066229462623596,0.09153252840042114
2026-05-01T11:20:30.785000+00:00,1777634430785,S010,12,50,1777634430720,,1777634430785,watch_direct,1777634428573,-0.03421887755393982,-0.16101527214050293,0.17458540201187134,-2.4712343215942383,-0.5234932899475098,-0.011415212415158749
2026-05-01T11:20:30.785000+00:00,1777634430785,S010,12,50,1777634430720,,1777634430785,watch_direct,1777634428593,-0.041576117277145386,-0.06057709455490112,0.10330456495285034,-1.9144891500473022,-0.5233998894691467,-0.09761662781238556
2026-05-01T11:20:31.036000+00:00,1777634431036,S010,13,50,1777634431062,,1777634431036,watch_direct,1777634428616,0.00040858983993530273,0.0044686198234558105,0.016426444053649902,-1.6652777194976807,-0.5457475185394287,-0.15516379475593567
2026-05-01T11:20:31.036000+00:00,1777634431036,S010,13,50,1777634431062,,1777634431036,watch_direct,1777634428633,-0.017631858587265015,-0.019412994384765625,-0.058624863624572754,-1.904686450958252,-0.5235735177993774,-0.13872097432613373
2026-05-01T11:20:31.036000+00:00,1777634431036,S010,13,50,1777634431062,,1777634431036,watch_direct,1777634428653,-0.03205651044845581,-0.043355345726013184,-0.06268620491027832,-2.407938003540039,-0.43921634554862976,-0.13508789241313934
2026-05-01T11:20:31.036000+00:00,1777634431036,S010,13,50,1777634431062,,1777634431036,watch_direct,1777634428673,0.04156312346458435,0.07410424947738647,0.14276832342147827,-2.3732287883758545,-0.3863999545574188,-0.1242290586233139
2026-05-01T11:20:31.036000+00:00,1777634431036,S010,13,50,1777634431062,,1777634431036,watch_direct,1777634428693,-0.004109829664230347,0.1980918049812317,-0.011029660701751709,-1.981157660484314,-0.34361299872398376,-0.12001124769449234
2026-05-01T11:20:31.036000+00:00,1777634431036,S010,13,50,1777634431062,,1777634431036,watch_direct,1777634428717,-0.036867618560791016,0.11221158504486084,-0.07202708721160889,-1.2867869138717651,-0.27686741948127747,-0.06301368772983551
2026-05-01T11:20:31.036000+00:00,1777634431036,S010,13,50,1777634431062,,1777634431036,watch_direct,1777634428734,-0.03189589083194733,0.14698940515518188,-0.06544798612594604,-0.8881298303604126,-0.08447296917438507,0.01483285054564476
2026-05-01T11:20:31.036000+00:00,1777634431036,S010,13,50,1777634431062,,1777634431036,watch_direct,1777634428754,-0.029056981205940247,-0.014311075210571289,-0.1594429612159729,-0.9184946417808533,0.1170310452580452,-0.019858552142977715
2026-05-01T11:20:31.036000+00:00,1777634431036,S010,13,50,1777634431062,,1777634431036,watch_direct,1777634428774,-0.03644829988479614,-0.027997732162475586,-0.12128204107284546,-1.0923588275909424,0.21214348077774048,-0.12395001202821732
2026-05-01T11:20:31.036000+00:00,1777634431036,S010,13,50,1777634431062,,1777634431036,watch_direct,1777634428794,-0.032395511865615845,0.051715314388275146,-0.06709665060043335,-1.01349937915802,0.24060966074466705,-0.16475822031497955
2026-05-01T11:20:31.237000+00:00,1777634431237,S010,14,50,1777634431264,,1777634431237,watch_direct,1777634428815,-0.025982648134231567,0.04130488634109497,0.020337164402008057,-0.7723518013954163,0.2138587087392807,-0.12768594920635223
2026-05-01T11:20:31.237000+00:00,1777634431237,S010,14,50,1777634431264,,1777634431237,watch_direct,1777634428834,-0.012495830655097961,0.006643056869506836,0.02574893832206726,-0.5206724405288696,0.18398337066173553,-0.1435980647802353
2026-05-01T11:20:31.237000+00:00,1777634431237,S010,14,50,1777634431264,,1777634431237,watch_direct,1777634428854,-0.012334898114204407,0.03374582529067993,0.015937387943267822,-0.21105706691741943,0.148101806640625,-0.19022762775421143
2026-05-01T11:20:31.237000+00:00,1777634431237,S010,14,50,1777634431264,,1777634431237,watch_direct,1777634428874,-0.03663647174835205,0.042399585247039795,-0.04629993438720703,-0.004780590534210205,0.14937984943389893,-0.1351230889558792
2026-05-01T11:20:31.237000+00:00,1777634431237,S010,14,50,1777634431264,,1777634431237,watch_direct,1777634428894,-0.05575031042098999,0.08705669641494751,-0.0033414363861083984,0.24797895550727844,0.2132997065782547,-0.1758127361536026
2026-05-01T11:20:31.237000+00:00,1777634431237,S010,14,50,1777634431264,,1777634431237,watch_direct,1777634428917,-0.005418449640274048,-0.006846129894256592,0.0241696834564209,0.315031498670578,0.24853314459323883,-0.16131709516048431
2026-05-01T11:20:31.237000+00:00,1777634431237,S010,14,50,1777634431264,,1777634431237,watch_direct,1777634428935,-0.019839152693748474,-0.03481578826904297,0.02349904179573059,0.13656401634216309,0.305879145860672,-0.13228602707386017
2026-05-01T11:20:31.237000+00:00,1777634431237,S010,14,50,1777634431264,,1777634431237,watch_direct,1777634428955,-0.015393421053886414,0.00014853477478027344,-0.0041401684284210205,-0.01272160466760397,0.3786220848560333,-0.10093226283788681
2026-05-01T11:20:31.237000+00:00,1777634431237,S010,14,50,1777634431264,,1777634431237,watch_direct,1777634428975,-0.009330347180366516,0.04266613721847534,-0.02913379669189453,-0.17624182999134064,0.4665635824203491,-0.04729220271110535
2026-05-01T11:20:31.237000+00:00,1777634431237,S010,14,50,1777634431264,,1777634431237,watch_direct,1777634428995,-0.005350470542907715,0.05177664756774902,-0.026037484407424927,-0.24622143805027008,0.5233247876167297,-0.017156509682536125
2026-05-01T11:20:31.486000+00:00,1777634431486,S010,15,50,1777634431534,,1777634431486,watch_direct,1777634429018,-0.011165052652359009,0.04049038887023926,-0.004441350698471069,-0.22583121061325073,0.5410057306289673,0.0033296984620392323
2026-05-01T11:20:31.486000+00:00,1777634431486,S010,15,50,1777634431534,,1777634431486,watch_direct,1777634429035,-0.0006952732801437378,0.029727458953857422,0.020249515771865845,-0.23223452270030975,0.5366882681846619,0.038887638598680496
2026-05-01T11:20:31.486000+00:00,1777634431486,S010,15,50,1777634431534,,1777634431486,watch_direct,1777634429055,-0.0019256174564361572,-0.024467110633850098,0.00818544626235962,-0.4360334575176239,0.5434595346450806,0.05827252194285393
2026-05-01T11:20:31.486000+00:00,1777634431486,S010,15,50,1777634431534,,1777634431486,watch_direct,1777634429075,-0.012285858392715454,-0.032678306102752686,-0.01750171184539795,-0.5675922632217407,0.5717384815216064,0.051226384937763214
2026-05-01T11:20:31.486000+00:00,1777634431486,S010,15,50,1777634431534,,1777634431486,watch_direct,1777634429095,-0.017879992723464966,0.010379552841186523,0.004771709442138672,-0.5060149431228638,0.5918722152709961,0.06721068173646927
2026-05-01T11:20:31.486000+00:00,1777634431486,S010,15,50,1777634431534,,1777634431486,watch_direct,1777634429117,3.463029861450195e-05,0.03390991687774658,0.039628878235816956,-0.42298558354377747,0.5573310852050781,0.08681889623403549
2026-05-01T11:20:31.486000+00:00,1777634431486,S010,15,50,1777634431534,,1777634431486,watch_direct,1777634429135,0.005686700344085693,0.011402368545532227,0.034618720412254333,-0.4273954927921295,0.5004737377166748,0.09494078904390335
2026-05-01T11:20:31.486000+00:00,1777634431486,S010,15,50,1777634431534,,1777634431486,watch_direct,1777634429156,0.003515899181365967,-0.025073349475860596,0.046324148774147034,-0.46960365772247314,0.4791097044944763,0.09644152969121933
2026-05-01T11:20:31.486000+00:00,1777634431486,S010,15,50,1777634431534,,1777634431486,watch_direct,1777634429176,-0.0016661584377288818,-0.045432865619659424,0.0009316504001617432,-0.5380921959877014,0.5080223083496094,0.10084661096334457
2026-05-01T11:20:31.486000+00:00,1777634431486,S010,15,50,1777634431534,,1777634431486,watch_direct,1777634429196,-0.01897624135017395,-0.01069331169128418,-0.05236773192882538,-0.5565047860145569,0.541850745677948,0.12334126979112625
2026-05-01T11:20:32.279000+00:00,1777634432279,S010,16,50,1777634432059,,1777634432279,watch_direct,1777634429217,-0.02514326572418213,0.00801229476928711,-0.03611434996128082,-0.4617942273616791,0.5833214521408081,0.11342286318540573
2026-05-01T11:20:32.279000+00:00,1777634432279,S010,16,50,1777634432059,,1777634432279,watch_direct,1777634429236,-0.0157831609249115,-0.0011960864067077637,-0.018773749470710754,-0.4016733467578888,0.589427649974823,0.13177438080310822
2026-05-01T11:20:32.279000+00:00,1777634432279,S010,16,50,1777634432059,,1777634432279,watch_direct,1777634429256,-0.010544449090957642,0.019363582134246826,0.04925452172756195,-0.21779166162014008,0.5668656229972839,0.1454308032989502
2026-05-01T11:20:32.279000+00:00,1777634432279,S010,16,50,1777634432059,,1777634432279,watch_direct,1777634429276,-0.012090951204299927,-0.048564612865448,0.019497498869895935,-0.1475859433412552,0.5353919863700867,0.1290912926197052
2026-05-01T11:20:32.279000+00:00,1777634432279,S010,16,50,1777634432059,,1777634432279,watch_direct,1777634429296,-0.04379826784133911,-0.01811802387237549,-0.04507888853549957,-0.04332878068089485,0.5601743459701538,0.13869301974773407
2026-05-01T11:20:32.279000+00:00,1777634432279,S010,16,50,1777634432059,,1777634432279,watch_direct,1777634429316,-0.020874321460723877,0.04402768611907959,-0.027127623558044434,0.1968744993209839,0.5698387622833252,0.14047151803970337
2026-05-01T11:20:32.279000+00:00,1777634432279,S010,16,50,1777634432059,,1777634432279,watch_direct,1777634429336,-0.0030019283294677734,0.022661924362182617,0.0377890020608902,0.37765732407569885,0.5193229913711548,0.12709078192710876
2026-05-01T11:20:32.279000+00:00,1777634432279,S010,16,50,1777634432059,,1777634432279,watch_direct,1777634429357,0.020912259817123413,0.03671550750732422,0.14825111627578735,0.5014991164207458,0.4382246732711792,0.14085006713867188
2026-05-01T11:20:32.279000+00:00,1777634432279,S010,16,50,1777634432059,,1777634432279,watch_direct,1777634429377,0.00030305981636047363,-0.028941214084625244,0.06433559954166412,0.40625327825546265,0.4510529339313507,0.17447076737880707
2026-05-01T11:20:32.279000+00:00,1777634432279,S010,16,50,1777634432059,,1777634432279,watch_direct,1777634429397,-0.017386287450790405,-0.023800313472747803,0.004874095320701599,0.2378416508436203,0.5153599977493286,0.19979503750801086
2026-05-01T11:20:32.531000+00:00,1777634432531,S010,17,50,1777634432498,,1777634432531,watch_direct,1777634429417,-0.006971031427383423,-0.026029348373413086,-0.02460777759552002,0.07964480668306351,0.5796957015991211,0.22249075770378113
2026-05-01T11:20:32.531000+00:00,1777634432531,S010,17,50,1777634432498,,1777634432531,watch_direct,1777634429437,0.001323610544204712,-0.01575380563735962,0.010519430041313171,0.10109551250934601,0.605800986289978,0.25638294219970703
2026-05-01T11:20:32.531000+00:00,1777634432531,S010,17,50,1777634432498,,1777634432531,watch_direct,1777634429457,0.03549093008041382,-0.02365511655807495,0.0721854418516159,0.24237807095050812,0.5727789998054504,0.2759351134300232
2026-05-01T11:20:32.531000+00:00,1777634432531,S010,17,50,1777634432498,,1777634432531,watch_direct,1777634429477,0.04833057522773743,-0.07464337348937988,0.08999250829219818,0.1416565179824829,0.5222986936569214,0.23817257583141327
2026-05-01T11:20:32.531000+00:00,1777634432531,S010,17,50,1777634432498,,1777634432531,watch_direct,1777634429497,0.04609200358390808,-0.14335155487060547,0.06936047971248627,-0.09638188034296036,0.4643438756465912,0.1471148282289505
2026-05-01T11:20:32.531000+00:00,1777634432531,S010,17,50,1777634432498,,1777634432531,watch_direct,1777634429519,0.05223408341407776,-0.1309300661087036,0.07438834011554718,-0.31150323152542114,0.3707885146141052,0.025404373183846474
2026-05-01T11:20:32.531000+00:00,1777634432531,S010,17,50,1777634432498,,1777634432531,watch_direct,1777634429538,0.028286486864089966,-0.12019336223602295,0.03951837122440338,-0.6398957967758179,0.3689819574356079,-0.01909848488867283
2026-05-01T11:20:32.531000+00:00,1777634432531,S010,17,50,1777634432498,,1777634432531,watch_direct,1777634429557,0.043511807918548584,-0.1422414779663086,0.019095897674560547,-0.7764109969139099,0.3421702980995178,-0.11966998875141144
2026-05-01T11:20:32.531000+00:00,1777634432531,S010,17,50,1777634432498,,1777634432531,watch_direct,1777634429578,0.03622362017631531,-0.09430313110351562,-0.008521482348442078,-0.5455053448677063,0.34278374910354614,-0.19238068163394928
2026-05-01T11:20:32.531000+00:00,1777634432531,S010,17,50,1777634432498,,1777634432531,watch_direct,1777634429598,0.058567821979522705,-0.05548673868179321,0.057734839618206024,-0.4274761974811554,0.23120462894439697,-0.21269932389259338
2026-05-01T11:20:33.049000+00:00,1777634433049,S010,18,50,1777634432907,,1777634433049,watch_direct,1777634429618,0.05686095356941223,-0.0245286226272583,0.06253457814455032,-0.3137834668159485,0.13831281661987305,-0.2624538242816925
2026-05-01T11:20:33.049000+00:00,1777634433049,S010,18,50,1777634432907,,1777634433049,watch_direct,1777634429638,0.042482227087020874,-0.04147028923034668,0.05258744955062866,-0.42520689964294434,0.07124004513025284,-0.30955269932746887
2026-05-01T11:20:33.049000+00:00,1777634433049,S010,18,50,1777634432907,,1777634433049,watch_direct,1777634429658,0.047423720359802246,-0.049829185009002686,0.040386736392974854,-0.6410359144210815,-0.014706863090395927,-0.34299978613853455
2026-05-01T11:20:33.049000+00:00,1777634433049,S010,18,50,1777634432907,,1777634433049,watch_direct,1777634429678,0.016424059867858887,-0.06864750385284424,-0.05437641963362694,-0.5410290956497192,-0.03159959986805916,-0.40553802251815796
2026-05-01T11:20:33.049000+00:00,1777634433049,S010,18,50,1777634432907,,1777634433049,watch_direct,1777634429698,-0.008146613836288452,-0.0584636926651001,-0.07990694046020508,-0.371547669172287,0.03420882299542427,-0.4357875883579254
2026-05-01T11:20:33.049000+00:00,1777634433049,S010,18,50,1777634432907,,1777634433049,watch_direct,1777634429718,0.03267684578895569,0.004574477672576904,-0.06163948401808739,-0.07410506904125214,0.09538634866476059,-0.4231036901473999
2026-05-01T11:20:33.049000+00:00,1777634433049,S010,18,50,1777634432907,,1777634433049,watch_direct,1777634429738,0.04756373167037964,0.009551048278808594,-0.046832140535116196,0.3159140944480896,0.12926918268203735,-0.41900649666786194
2026-05-01T11:20:33.049000+00:00,1777634433049,S010,18,50,1777634432907,,1777634433049,watch_direct,1777634429758,0.0147075355052948,0.01140981912612915,-0.05642205849289894,0.2578486204147339,0.19663363695144653,-0.4222613275051117
2026-05-01T11:20:33.049000+00:00,1777634433049,S010,18,50,1777634432907,,1777634433049,watch_direct,1777634429778,0.021145373582839966,0.009768187999725342,-0.0003195367753505707,-0.39859527349472046,0.22329333424568176,-0.37707701325416565
2026-05-01T11:20:33.049000+00:00,1777634433049,S010,18,50,1777634432907,,1777634433049,watch_direct,1777634429799,-0.002207815647125244,-0.014545977115631104,0.026337504386901855,-0.9523593783378601,0.2194957435131073,-0.37058189511299133
2026-05-01T11:20:33.286000+00:00,1777634433286,S010,19,50,1777634433250,,1777634433286,watch_direct,1777634429819,0.006258130073547363,0.03614729642868042,-0.01351010799407959,-0.6290753483772278,0.20561690628528595,-0.39141201972961426
2026-05-01T11:20:33.286000+00:00,1777634433286,S010,19,50,1777634433250,,1777634433286,watch_direct,1777634429839,0.005463212728500366,0.04326510429382324,-0.03217935562133789,0.024080617353320122,0.20655985176563263,-0.40760302543640137
2026-05-01T11:20:33.286000+00:00,1777634433286,S010,19,50,1777634433250,,1777634433286,watch_direct,1777634429859,0.009765654802322388,0.026971518993377686,-0.01875084638595581,0.29519838094711304,0.15088878571987152,-0.4518735706806183
2026-05-01T11:20:33.286000+00:00,1777634433286,S010,19,50,1777634433250,,1777634433286,watch_direct,1777634429879,-0.03728662431240082,0.030799508094787598,-0.012111903168261051,0.40341487526893616,0.09494251757860184,-0.5763447284698486
2026-05-01T11:20:33.286000+00:00,1777634433286,S010,19,50,1777634433250,,1777634433286,watch_direct,1777634429899,-0.049417644739151,0.0067040324211120605,-0.06683200597763062,0.6525906324386597,0.09868809580802917,-0.6623563170433044
2026-05-01T11:20:33.286000+00:00,1777634433286,S010,19,50,1777634433250,,1777634433286,watch_direct,1777634429919,-0.025581270456314087,0.07844674587249756,-0.11626285314559937,1.0900763273239136,0.09112301468849182,-0.5919454097747803
2026-05-01T11:20:33.286000+00:00,1777634433286,S010,19,50,1777634433250,,1777634433286,watch_direct,1777634429940,-0.07794901728630066,0.11637711524963379,-0.18213915824890137,1.666281819343567,0.15413936972618103,-0.46511954069137573
2026-05-01T11:20:33.286000+00:00,1777634433286,S010,19,50,1777634433250,,1777634433286,watch_direct,1777634429964,-0.08845394849777222,-0.00815051794052124,-0.1152535080909729,1.5700160264968872,0.26461249589920044,-0.4340319335460663
2026-05-01T11:20:33.286000+00:00,1777634433286,S010,19,50,1777634433250,,1777634433286,watch_direct,1777634429980,0.04273363947868347,0.07532995939254761,0.08275724202394485,0.3968464732170105,0.27116531133651733,-0.24905622005462646
2026-05-01T11:20:33.286000+00:00,1777634433286,S010,19,50,1777634433250,,1777634433286,watch_direct,1777634430000,0.1415981501340866,0.3835710287094116,0.0051630958914756775,-0.07015720009803772,0.2954185903072357,0.05218341574072838
2026-05-01T11:20:33.699000+00:00,1777634433699,S010,20,50,1777634433674,,1777634433699,watch_direct,1777634430020,0.1185443252325058,0.2873239517211914,-0.1306605190038681,0.5047186017036438,0.37943607568740845,0.12533272802829742
2026-05-01T11:20:33.699000+00:00,1777634433699,S010,20,50,1777634433674,,1777634433699,watch_direct,1777634430040,0.07704637944698334,0.10872989892959595,-0.09247986972332001,0.7628369927406311,0.4289334714412689,0.20761114358901978
2026-05-01T11:20:33.699000+00:00,1777634433699,S010,20,50,1777634433674,,1777634433699,watch_direct,1777634430060,0.04711243510246277,-0.029170334339141846,-0.05082260072231293,0.7670543789863586,0.43045273423194885,0.21689631044864655
2026-05-01T11:20:33.699000+00:00,1777634433699,S010,20,50,1777634433674,,1777634433699,watch_direct,1777634430080,0.04905374348163605,-0.08543455600738525,-0.0037548691034317017,0.5891908407211304,0.37233471870422363,0.19750918447971344
2026-05-01T11:20:33.699000+00:00,1777634433699,S010,20,50,1777634433674,,1777634433699,watch_direct,1777634430102,0.03574150800704956,0.031958162784576416,0.04984910786151886,0.41637489199638367,0.3083550035953522,0.1546531766653061
2026-05-01T11:20:33.699000+00:00,1777634433699,S010,20,50,1777634433674,,1777634433699,watch_direct,1777634430120,0.01491682231426239,0.02285522222518921,0.06632156670093536,0.3406793475151062,0.2595876157283783,0.14043530821800232
2026-05-01T11:20:33.699000+00:00,1777634433699,S010,20,50,1777634433674,,1777634433699,watch_direct,1777634430140,0.03249281644821167,-0.030773580074310303,0.10879503190517426,0.29275575280189514,0.13787461817264557,0.12269220501184464
2026-05-01T11:20:33.699000+00:00,1777634433699,S010,20,50,1777634433674,,1777634433699,watch_direct,1777634430160,0.041372135281562805,-0.018259406089782715,0.10885389149188995,0.4455506205558777,0.03805096447467804,0.03208187595009804
2026-05-01T11:20:33.699000+00:00,1777634433699,S010,20,50,1777634433674,,1777634433699,watch_direct,1777634430180,0.05362173914909363,-0.0032618045806884766,0.06290405988693237,0.6104559898376465,-0.1140909343957901,-0.00525398924946785
2026-05-01T11:20:33.699000+00:00,1777634433699,S010,20,50,1777634433674,,1777634433699,watch_direct,1777634430200,0.014839351177215576,0.002180635929107666,0.07241983711719513,0.7722429633140564,-0.15781499445438385,-0.03696131706237793
2026-05-01T11:20:34.080000+00:00,1777634434080,S010,21,50,1777634433971,,1777634434080,watch_direct,1777634430221,-0.01640114188194275,-0.05730628967285156,0.13437426090240479,0.9150959849357605,-0.20813891291618347,-0.06694132089614868
2026-05-01T11:20:34.080000+00:00,1777634434080,S010,21,50,1777634433971,,1777634434080,watch_direct,1777634430241,-0.023107856512069702,-0.10066503286361694,0.10491326451301575,0.6983155012130737,-0.233644038438797,-0.09643588960170746
2026-05-01T11:20:34.080000+00:00,1777634434080,S010,21,50,1777634433971,,1777634434080,watch_direct,1777634430261,-0.05658221244812012,-0.1035226583480835,0.08194127678871155,0.31392574310302734,-0.26580896973609924,-0.08397676050662994
2026-05-01T11:20:34.080000+00:00,1777634434080,S010,21,50,1777634433971,,1777634434080,watch_direct,1777634430281,-0.08739788830280304,-0.08090561628341675,0.027829349040985107,0.03467573970556259,-0.21300290524959564,-0.11618844419717789
2026-05-01T11:20:34.080000+00:00,1777634434080,S010,21,50,1777634433971,,1777634434080,watch_direct,1777634430301,-0.07751014828681946,-0.09599733352661133,0.09506666660308838,0.04652227461338043,-0.2920687794685364,-0.2096298187971115
2026-05-01T11:20:34.080000+00:00,1777634434080,S010,21,50,1777634433971,,1777634434080,watch_direct,1777634430322,-0.08765938878059387,-0.07494598627090454,0.07946732640266418,0.5796253681182861,-0.2998681664466858,-0.3242221772670746
2026-05-01T11:20:34.080000+00:00,1777634434080,S010,21,50,1777634433971,,1777634434080,watch_direct,1777634430341,-0.1027044802904129,-0.11678880453109741,0.028371602296829224,0.8684760332107544,-0.22108624875545502,-0.4521462023258209
2026-05-01T11:20:34.080000+00:00,1777634434080,S010,21,50,1777634433971,,1777634434080,watch_direct,1777634430361,-0.08389884233474731,-0.11624801158905029,0.0055422186851501465,0.536675751209259,-0.12976288795471191,-0.5030497312545776
2026-05-01T11:20:34.080000+00:00,1777634434080,S010,21,50,1777634433971,,1777634434080,watch_direct,1777634430381,-0.09086060523986816,-0.1321730613708496,0.0002289116382598877,-0.005261024460196495,-0.04960465803742409,-0.6167648434638977
2026-05-01T11:20:34.080000+00:00,1777634434080,S010,21,50,1777634433971,,1777634434080,watch_direct,1777634430402,-0.05488400161266327,0.08645397424697876,-0.045474499464035034,-0.46505552530288696,0.11190612614154816,-0.47468799352645874
2026-05-01T11:20:34.308000+00:00,1777634434308,S010,22,50,1777634434318,,1777634434308,watch_direct,1777634430423,0.04657961428165436,0.581668496131897,-0.2853173613548279,0.20208097994327545,0.4332658052444458,0.04288669675588608
2026-05-01T11:20:34.308000+00:00,1777634434308,S010,22,50,1777634434318,,1777634434308,watch_direct,1777634430442,0.12592867016792297,0.19534331560134888,0.013875365257263184,0.9014387726783752,0.33739325404167175,0.004393258597701788
2026-05-01T11:20:34.308000+00:00,1777634434308,S010,22,50,1777634434318,,1777634434308,watch_direct,1777634430462,0.03813847899436951,-0.16345226764678955,0.1058618426322937,0.11361342668533325,0.271289587020874,0.0631021112203598
2026-05-01T11:20:34.308000+00:00,1777634434308,S010,22,50,1777634434318,,1777634434308,watch_direct,1777634430482,-0.04201582074165344,-0.1250401735305786,0.016844987869262695,-0.277740478515625,0.2776498794555664,-0.036753006279468536
2026-05-01T11:20:34.308000+00:00,1777634434308,S010,22,50,1777634434318,,1777634434308,watch_direct,1777634430502,-0.027734622359275818,0.05006474256515503,-0.0349234938621521,0.05841222405433655,0.2819935381412506,-0.03987300395965576
2026-05-01T11:20:34.308000+00:00,1777634434308,S010,22,50,1777634434318,,1777634434308,watch_direct,1777634430522,-0.012313053011894226,0.06053364276885986,0.019611060619354248,0.4428035616874695,0.23527516424655914,0.004136529751121998
2026-05-01T11:20:34.308000+00:00,1777634434308,S010,22,50,1777634434318,,1777634434308,watch_direct,1777634430542,0.01013539731502533,0.0842733383178711,0.04675072431564331,0.5279957056045532,0.18315139412879944,0.10822031646966934
2026-05-01T11:20:34.308000+00:00,1777634434308,S010,22,50,1777634434318,,1777634434308,watch_direct,1777634430562,0.005445703864097595,-0.05172914266586304,0.03713378310203552,0.2695351243019104,0.1498904526233673,0.056574489921331406
2026-05-01T11:20:34.308000+00:00,1777634434308,S010,22,50,1777634434318,,1777634434308,watch_direct,1777634430582,-0.013317793607711792,-0.08225470781326294,0.0371127724647522,-0.025192655622959137,0.1465456336736679,-0.018485160544514656
2026-05-01T11:20:34.308000+00:00,1777634434308,S010,22,50,1777634434318,,1777634434308,watch_direct,1777634430602,0.007710859179496765,-0.027530789375305176,-0.02595660090446472,-0.03560561686754227,0.17542636394500732,-0.01893044076859951
2026-05-01T11:20:34.680000+00:00,1777634434680,S010,23,50,1777634434555,,1777634434680,watch_direct,1777634430623,0.002925872802734375,0.02583026885986328,-0.03704836964607239,-0.06401435285806656,0.20217305421829224,0.0835418775677681
2026-05-01T11:20:34.680000+00:00,1777634434680,S010,23,50,1777634434555,,1777634434680,watch_direct,1777634430643,-0.004461199045181274,-0.029872536659240723,0.030563294887542725,-0.24878980219364166,0.20521458983421326,0.15030784904956818
2026-05-01T11:20:34.680000+00:00,1777634434680,S010,23,50,1777634434555,,1777634434680,watch_direct,1777634430663,-0.02698168158531189,-0.05437517166137695,0.02504897117614746,-0.13403311371803284,0.21818490326404572,0.1339147537946701
2026-05-01T11:20:34.680000+00:00,1777634434680,S010,23,50,1777634434555,,1777634434680,watch_direct,1777634430683,0.012837767601013184,-0.024456262588500977,0.055217355489730835,-0.2094799429178238,0.194835364818573,0.11971383541822433
2026-05-01T11:20:34.680000+00:00,1777634434680,S010,23,50,1777634434555,,1777634434680,watch_direct,1777634430703,-0.008496925234794617,-0.06667131185531616,0.02660304307937622,-0.3803164064884186,0.19108860194683075,0.13637930154800415
2026-05-01T11:20:34.680000+00:00,1777634434680,S010,23,50,1777634434555,,1777634434680,watch_direct,1777634430734,-0.002497658133506775,0.005713522434234619,0.010243445634841919,-0.45131251215934753,0.23052480816841125,0.14221957325935364
2026-05-01T11:20:34.680000+00:00,1777634434680,S010,23,50,1777634434555,,1777634434680,watch_direct,1777634430745,0.038132667541503906,0.030478239059448242,0.005137205123901367,-0.543509304523468,0.2294333279132843,0.1541057974100113
2026-05-01T11:20:34.680000+00:00,1777634434680,S010,23,50,1777634434555,,1777634434680,watch_direct,1777634430763,0.047497332096099854,0.04870915412902832,-0.0018705129623413086,-0.44138452410697937,0.19629888236522675,0.12221502512693405
2026-05-01T11:20:34.680000+00:00,1777634434680,S010,23,50,1777634434555,,1777634434680,watch_direct,1777634430783,0.04125618934631348,0.17278742790222168,-0.07777565717697144,0.13839653134346008,0.0918026864528656,-0.03372003883123398
2026-05-01T11:20:34.680000+00:00,1777634434680,S010,23,50,1777634434555,,1777634434680,watch_direct,1777634430803,-0.01062995195388794,-0.019625544548034668,-0.0014377832412719727,0.1440938413143158,0.1263381838798523,-0.01192275807261467
2026-05-01T11:20:35.017000+00:00,1777634435017,S010,24,50,1777634434918,,1777634435017,watch_direct,1777634430823,0.020654648542404175,-0.011013388633728027,-0.000883936882019043,0.09501391649246216,-0.025371452793478966,-0.02492031455039978
2026-05-01T11:20:35.017000+00:00,1777634435017,S010,24,50,1777634434918,,1777634435017,watch_direct,1777634430844,-0.028354406356811523,0.03183931112289429,-0.007650643587112427,0.16221611201763153,-0.02552652545273304,-0.03913450986146927
2026-05-01T11:20:35.017000+00:00,1777634435017,S010,24,50,1777634434918,,1777634435017,watch_direct,1777634430864,-0.008260682225227356,0.018493831157684326,0.012168258428573608,0.14676126837730408,-0.03315180540084839,0.02218621037900448
2026-05-01T11:20:35.017000+00:00,1777634435017,S010,24,50,1777634434918,,1777634435017,watch_direct,1777634430884,0.008028849959373474,-0.020256340503692627,0.037930577993392944,0.020609190687537193,-0.07564128190279007,0.08775372058153152
2026-05-01T11:20:35.017000+00:00,1777634435017,S010,24,50,1777634434918,,1777634435017,watch_direct,1777634430904,-0.03203494846820831,0.017732739448547363,0.0038031041622161865,0.09033074229955673,-0.03890282288193703,0.0625617578625679
2026-05-01T11:20:35.017000+00:00,1777634435017,S010,24,50,1777634434918,,1777634435017,watch_direct,1777634430924,-0.014029577374458313,-0.0006009936332702637,-0.01419559121131897,0.1988431066274643,0.008980698883533478,0.0776728019118309
2026-05-01T11:20:35.017000+00:00,1777634435017,S010,24,50,1777634434918,,1777634435017,watch_direct,1777634430944,-0.0002903938293457031,-0.006398975849151611,-0.0031377673149108887,0.24550196528434753,0.042276717722415924,0.10657805949449539
2026-05-01T11:20:35.017000+00:00,1777634435017,S010,24,50,1777634434918,,1777634435017,watch_direct,1777634430964,-0.0082579106092453,0.014043927192687988,0.012286663055419922,0.27603402733802795,0.08436410129070282,0.10525521636009216
2026-05-01T11:20:35.017000+00:00,1777634435017,S010,24,50,1777634434918,,1777634435017,watch_direct,1777634430986,-0.0032796710729599,0.005252182483673096,0.011436283588409424,0.2996203303337097,0.10923890024423599,0.09373459219932556
2026-05-01T11:20:35.017000+00:00,1777634435017,S010,24,50,1777634434918,,1777634435017,watch_direct,1777634431005,-0.0018172264099121094,-0.020820140838623047,0.008388936519622803,0.09951013326644897,0.08927907794713974,-0.04847118258476257
2026-05-01T11:20:35.220000+00:00,1777634435220,S010,25,50,1777634435198,,1777634435220,watch_direct,1777634431025,0.018158480525016785,-0.044364988803863525,-0.043958812952041626,0.12051954120397568,0.12917563319206238,0.043761808425188065
2026-05-01T11:20:35.220000+00:00,1777634435220,S010,25,50,1777634435198,,1777634435220,watch_direct,1777634431045,0.012084409594535828,0.0125657320022583,0.0012603402137756348,0.0937608927488327,0.09790372848510742,-0.047217100858688354
2026-05-01T11:20:35.220000+00:00,1777634435220,S010,25,50,1777634435198,,1777634435220,watch_direct,1777634431067,0.007845357060432434,-0.020106375217437744,-0.0007414519786834717,0.047014426440000534,0.07850126922130585,-0.07952874898910522
2026-05-01T11:20:35.220000+00:00,1777634435220,S010,25,50,1777634435198,,1777634435220,watch_direct,1777634431085,0.015343904495239258,-0.0018687844276428223,0.006102621555328369,0.01695985719561577,0.021829158067703247,-0.12815429270267487
2026-05-01T11:20:35.220000+00:00,1777634435220,S010,25,50,1777634435198,,1777634435220,watch_direct,1777634431105,0.0013790279626846313,0.0005903840065002441,0.0016612112522125244,-0.03075573220849037,-0.009577348828315735,-0.1337835192680359
2026-05-01T11:20:35.220000+00:00,1777634435220,S010,25,50,1777634435198,,1777634435220,watch_direct,1777634431125,0.0033883899450302124,0.029892325401306152,0.022527426481246948,0.06515614688396454,-0.055442117154598236,-0.09598421305418015
2026-05-01T11:20:35.220000+00:00,1777634435220,S010,25,50,1777634435198,,1777634435220,watch_direct,1777634431145,0.0014849752187728882,0.07589203119277954,0.035342395305633545,0.29358214139938354,-0.08844918757677078,-0.0732211098074913
2026-05-01T11:20:35.220000+00:00,1777634435220,S010,25,50,1777634435198,,1777634435220,watch_direct,1777634431165,-0.011047646403312683,-0.008661031723022461,0.007458597421646118,0.39622488617897034,-0.02991887740790844,-0.06214156001806259
2026-05-01T11:20:35.220000+00:00,1777634435220,S010,25,50,1777634435198,,1777634435220,watch_direct,1777634431185,-0.010180875658988953,-0.03608226776123047,-0.025287717580795288,0.06933864206075668,-0.013685464859008789,0.02946777269244194
2026-05-01T11:20:35.220000+00:00,1777634435220,S010,25,50,1777634435198,,1777634435220,watch_direct,1777634431205,-0.016700878739356995,-0.03240668773651123,-0.023292630910873413,-0.2046782672405243,0.05016857758164406,0.06151044741272926
2026-05-01T11:20:35.449000+00:00,1777634435449,S010,26,50,1777634435472,,1777634435449,watch_direct,1777634431225,-0.0019143670797348022,-0.037214696407318115,-0.014966040849685669,-0.3520946204662323,0.0719311311841011,0.02160431072115898
2026-05-01T11:20:35.449000+00:00,1777634435449,S010,26,50,1777634435472,,1777634435449,watch_direct,1777634431250,0.012775346636772156,-0.01545637845993042,-0.000921100378036499,-0.3532317876815796,0.03730177879333496,-0.043310243636369705
2026-05-01T11:20:35.449000+00:00,1777634435449,S010,26,50,1777634435472,,1777634435449,watch_direct,1777634431270,0.0074135661125183105,0.00376051664352417,0.007686495780944824,-0.299067884683609,0.05245250463485718,-0.13375891745090485
2026-05-01T11:20:35.449000+00:00,1777634435449,S010,26,50,1777634435472,,1777634435449,watch_direct,1777634431286,0.014656737446784973,-0.01254284381866455,0.005717098712921143,-0.2977144718170166,0.0495842806994915,-0.17939963936805725
2026-05-01T11:20:35.449000+00:00,1777634435449,S010,26,50,1777634435472,,1777634435449,watch_direct,1777634431306,0.03602169454097748,0.049730122089385986,-0.05150750279426575,-0.08280748128890991,0.10099078714847565,-0.07698964327573776
2026-05-01T11:20:35.449000+00:00,1777634435449,S010,26,50,1777634435472,,1777634435449,watch_direct,1777634431326,-0.011001482605934143,-0.026707172393798828,0.025279104709625244,-0.1741107553243637,0.0775851383805275,-0.09431834518909454
2026-05-01T11:20:35.449000+00:00,1777634435449,S010,26,50,1777634435472,,1777634435449,watch_direct,1777634431346,-0.016754046082496643,-0.018257200717926025,0.03362518548965454,-0.20057618618011475,0.0751565620303154,-0.07937348634004593
2026-05-01T11:20:35.449000+00:00,1777634435449,S010,26,50,1777634435472,,1777634435449,watch_direct,1777634431366,-0.003339216113090515,0.010658860206604004,0.025231540203094482,-0.056895188987255096,0.06464069336652756,-0.04524502903223038
2026-05-01T11:20:35.449000+00:00,1777634435449,S010,26,50,1777634435472,,1777634435449,watch_direct,1777634431386,0.008177250623703003,0.028487801551818848,-0.03899553418159485,0.21733690798282623,0.03011280670762062,-0.05734483152627945
2026-05-01T11:20:35.449000+00:00,1777634435449,S010,26,50,1777634435472,,1777634435449,watch_direct,1777634431406,-0.0078046321868896484,0.005694210529327393,0.00815039873123169,0.2304985225200653,0.05394729971885681,-0.055756524205207825
2026-05-01T11:20:36.066000+00:00,1777634436066,S010,27,50,1777634436074,,1777634436066,watch_direct,1777634431426,-0.00031322240829467773,0.00876927375793457,0.009761393070220947,0.24234426021575928,0.05334915220737457,-0.052575912326574326
2026-05-01T11:20:36.066000+00:00,1777634436066,S010,27,50,1777634436074,,1777634436066,watch_direct,1777634431446,-0.006759956479072571,0.0333285927772522,0.012892603874206543,0.31633883714675903,0.08692283183336258,-0.03068818897008896
2026-05-01T11:20:36.066000+00:00,1777634436066,S010,27,50,1777634436074,,1777634436066,watch_direct,1777634431466,-1.3962388038635254e-05,0.006186008453369141,0.005624830722808838,0.36786940693855286,0.08943632245063782,0.022538812831044197
2026-05-01T11:20:36.066000+00:00,1777634436066,S010,27,50,1777634436074,,1777634436066,watch_direct,1777634431487,-0.009171783924102783,-0.017519712448120117,-0.001448303461074829,0.2934255301952362,0.09419112652540207,0.06816398352384567
2026-05-01T11:20:36.066000+00:00,1777634436066,S010,27,50,1777634436074,,1777634436066,watch_direct,1777634431507,-0.008668944239616394,-0.020176231861114502,-0.005764365196228027,0.23927946388721466,0.08782373368740082,0.11845165491104126
2026-05-01T11:20:36.066000+00:00,1777634436066,S010,27,50,1777634436074,,1777634436066,watch_direct,1777634431527,-0.00024628639221191406,0.011959850788116455,-0.00029030442237854004,0.26689618825912476,0.05484086647629738,0.16672742366790771
2026-05-01T11:20:36.066000+00:00,1777634436066,S010,27,50,1777634436074,,1777634436066,watch_direct,1777634431547,0.01184922456741333,0.02072763442993164,0.01793530583381653,0.32645273208618164,0.021825315430760384,0.17027048766613007
2026-05-01T11:20:36.066000+00:00,1777634436066,S010,27,50,1777634436074,,1777634436066,watch_direct,1777634431567,0.008419930934906006,-0.020116150379180908,-0.011016279458999634,0.14157342910766602,0.0009830363560467958,0.14134210348129272
2026-05-01T11:20:36.066000+00:00,1777634436066,S010,27,50,1777634436074,,1777634436066,watch_direct,1777634431587,-0.015071630477905273,-0.10922574996948242,-0.05045822262763977,-0.30552124977111816,0.04377162456512451,0.10840035229921341
2026-05-01T11:20:36.066000+00:00,1777634436066,S010,27,50,1777634436074,,1777634436066,watch_direct,1777634431607,0.0051418691873550415,-0.1054452657699585,-0.04670408368110657,-0.7472997307777405,0.02319258265197277,0.08361915498971939
2026-05-01T11:20:36.363000+00:00,1777634436363,S010,28,50,1777634436374,,1777634436363,watch_direct,1777634431627,0.005640536546707153,-0.042177557945251465,-0.030174285173416138,-0.9655068516731262,-0.012932892888784409,0.06624916940927505
2026-05-01T11:20:36.363000+00:00,1777634436363,S010,28,50,1777634436374,,1777634436363,watch_direct,1777634431648,0.015364766120910645,0.04734259843826294,0.010885566473007202,-0.9478299021720886,-0.07503312826156616,0.024797705933451653
2026-05-01T11:20:36.363000+00:00,1777634436363,S010,28,50,1777634436374,,1777634436363,watch_direct,1777634431668,-0.002965301275253296,0.0271492600440979,0.005526185035705566,-0.893852949142456,-0.08615083992481232,-0.0013601814862340689
2026-05-01T11:20:36.363000+00:00,1777634436363,S010,28,50,1777634436374,,1777634436363,watch_direct,1777634431688,-0.010727420449256897,-0.006487488746643066,-0.012268111109733582,-1.0369893312454224,-0.03237807750701904,0.02747540920972824
2026-05-01T11:20:36.363000+00:00,1777634436363,S010,28,50,1777634436374,,1777634436363,watch_direct,1777634431708,0.007924497127532959,-0.08816075325012207,-0.01612815260887146,-1.0420650243759155,-0.04783415421843529,0.027824655175209045
2026-05-01T11:20:36.363000+00:00,1777634436363,S010,28,50,1777634436374,,1777634436363,watch_direct,1777634431729,0.013958960771560669,0.018359780311584473,-0.00884053111076355,-1.1775546073913574,-0.12370814383029938,0.04734429344534874
2026-05-01T11:20:36.363000+00:00,1777634436363,S010,28,50,1777634436374,,1777634436363,watch_direct,1777634431748,-0.03874577581882477,0.0537753701210022,0.0006430596113204956,-1.1519209146499634,0.024858808144927025,0.17060838639736176
2026-05-01T11:20:36.363000+00:00,1777634436363,S010,28,50,1777634436374,,1777634436363,watch_direct,1777634431768,0.007549002766609192,-0.010851442813873291,0.013230487704277039,-0.9501066207885742,-0.05563044175505638,0.20760928094387054
2026-05-01T11:20:36.363000+00:00,1777634436363,S010,28,50,1777634436374,,1777634436363,watch_direct,1777634431788,-0.009358450770378113,0.023812413215637207,0.008798554539680481,-0.8036250472068787,-0.046728599816560745,0.25229451060295105
2026-05-01T11:20:36.363000+00:00,1777634436363,S010,28,50,1777634436374,,1777634436363,watch_direct,1777634431808,0.006286799907684326,0.025301992893218994,0.02669157087802887,-0.46504539251327515,-0.06295907497406006,0.2618193030357361
2026-05-01T11:20:36.627000+00:00,1777634436627,S010,29,50,1777634436570,,1777634436627,watch_direct,1777634431828,0.001485198736190796,0.009458363056182861,0.006915748119354248,-0.3308873176574707,-0.055213239043951035,0.21732822060585022
2026-05-01T11:20:36.627000+00:00,1777634436627,S010,29,50,1777634436570,,1777634436627,watch_direct,1777634431848,-0.01464928686618805,0.061324119567871094,0.018377065658569336,-0.32439425587654114,-0.00797267910093069,0.2197245955467224
2026-05-01T11:20:36.627000+00:00,1777634436627,S010,29,50,1777634436570,,1777634436627,watch_direct,1777634431869,0.01845201849937439,-0.013858973979949951,0.023860998451709747,-0.08855138719081879,-0.08510098606348038,0.15875034034252167
2026-05-01T11:20:36.627000+00:00,1777634436627,S010,29,50,1777634436570,,1777634436627,watch_direct,1777634431889,0.0054874420166015625,0.0401952862739563,0.024831116199493408,0.07095092535018921,-0.1045641228556633,0.09960372000932693
2026-05-01T11:20:36.627000+00:00,1777634436627,S010,29,50,1777634436570,,1777634436627,watch_direct,1777634431909,0.005412250757217407,-0.004290521144866943,0.0028511956334114075,0.1374569833278656,-0.10126610100269318,0.03272987902164459
2026-05-01T11:20:36.627000+00:00,1777634436627,S010,29,50,1777634436570,,1777634436627,watch_direct,1777634431929,0.009430110454559326,-0.010992765426635742,0.0007482022047042847,0.08386804908514023,-0.14001764357089996,-0.025474252179265022
2026-05-01T11:20:36.627000+00:00,1777634436627,S010,29,50,1777634436570,,1777634436627,watch_direct,1777634431949,0.000409930944442749,-0.011995017528533936,-0.0011754557490348816,-0.004944108426570892,-0.13445259630680084,-0.03682869300246239
2026-05-01T11:20:36.627000+00:00,1777634436627,S010,29,50,1777634436570,,1777634436627,watch_direct,1777634431969,0.000956416130065918,-0.0267411470413208,-0.01622837781906128,-0.16241894662380219,-0.12474517524242401,-0.050430525094270706
2026-05-01T11:20:36.627000+00:00,1777634436627,S010,29,50,1777634436570,,1777634436627,watch_direct,1777634431989,-0.0027212053537368774,-0.012602746486663818,-0.009420320391654968,-0.25927358865737915,-0.10027898102998734,-0.044282082468271255
2026-05-01T11:20:36.627000+00:00,1777634436627,S010,29,50,1777634436570,,1777634436627,watch_direct,1777634432009,0.0026302188634872437,0.0030080080032348633,0.004843607544898987,-0.2400900423526764,-0.09142553806304932,-0.04949181154370308
2026-05-01T11:20:36.847000+00:00,1777634436847,S010,30,50,1777634436828,,1777634436847,watch_direct,1777634432029,-0.003661930561065674,0.008688628673553467,0.0048650577664375305,-0.1932988464832306,-0.07370505481958389,-0.06556292623281479
2026-05-01T11:20:36.847000+00:00,1777634436847,S010,30,50,1777634436828,,1777634436847,watch_direct,1777634432049,-0.0010558515787124634,0.0070250630378723145,0.012533783912658691,-0.12154023349285126,-0.05203079804778099,-0.08614463359117508
2026-05-01T11:20:36.847000+00:00,1777634436847,S010,30,50,1777634436828,,1777634436847,watch_direct,1777634432072,-0.0026582926511764526,0.004519164562225342,0.010082438588142395,-0.05801824480295181,-0.03134298324584961,-0.06841745972633362
2026-05-01T11:20:36.847000+00:00,1777634436847,S010,30,50,1777634436828,,1777634436847,watch_direct,1777634432089,-0.006905481219291687,0.00734943151473999,0.007302045822143555,-0.03900673985481262,1.984708069358021e-05,-0.02035464532673359
2026-05-01T11:20:36.847000+00:00,1777634436847,S010,30,50,1777634436828,,1777634436847,watch_direct,1777634432110,-0.010875627398490906,-0.0021457672119140625,0.005134359002113342,-0.03543037921190262,0.02829238399863243,0.02807413972914219
2026-05-01T11:20:36.847000+00:00,1777634436847,S010,30,50,1777634436828,,1777634436847,watch_direct,1777634432130,-0.007691994309425354,0.001895904541015625,0.007602870464324951,-0.015538962557911873,0.04561711847782135,0.058632317930459976
2026-05-01T11:20:36.847000+00:00,1777634436847,S010,30,50,1777634436828,,1777634436847,watch_direct,1777634432150,-0.0038205087184906006,0.007206737995147705,0.009608805179595947,0.018518608063459396,0.05633706972002983,0.06042776629328728
2026-05-01T11:20:36.847000+00:00,1777634436847,S010,30,50,1777634436828,,1777634436847,watch_direct,1777634432171,-0.002332925796508789,0.003211796283721924,0.0069565847516059875,0.059479087591171265,0.0642058327794075,0.05058605223894119
2026-05-01T11:20:36.847000+00:00,1777634436847,S010,30,50,1777634436828,,1777634436847,watch_direct,1777634432190,0.001959085464477539,-0.0027381181716918945,0.004310667514801025,0.060043949633836746,0.05806439369916916,0.043920427560806274
2026-05-01T11:20:36.847000+00:00,1777634436847,S010,30,50,1777634436828,,1777634436847,watch_direct,1777634432210,-0.00229489803314209,-0.004002511501312256,0.005155384540557861,0.04489215463399887,0.05644306167960167,0.0647674947977066
2026-05-01T11:20:37.123000+00:00,1777634437123,S010,31,50,1777634437086,,1777634437123,watch_direct,1777634432230,-0.0025800466537475586,-0.010630309581756592,0.0016345977783203125,-0.0003608092665672302,0.04666195809841156,0.0826110988855362
2026-05-01T11:20:37.123000+00:00,1777634437123,S010,31,50,1777634437086,,1777634437123,watch_direct,1777634432251,0.000770270824432373,-0.0011278390884399414,0.005451604723930359,0.002630721777677536,0.036129724234342575,0.08073969930410385
2026-05-01T11:20:37.123000+00:00,1777634437123,S010,31,50,1777634437086,,1777634437123,watch_direct,1777634432270,0.004132777452468872,-0.0028802156448364258,0.0005588605999946594,0.01270359382033348,0.03525692969560623,0.05875828117132187
2026-05-01T11:20:37.123000+00:00,1777634437123,S010,31,50,1777634437086,,1777634437123,watch_direct,1777634432291,0.004447564482688904,0.002841055393218994,0.0049413517117500305,0.0058534108102321625,0.024379896000027657,0.033395349979400635
2026-05-01T11:20:37.123000+00:00,1777634437123,S010,31,50,1777634437086,,1777634437123,watch_direct,1777634432310,0.0017679333686828613,-0.015108466148376465,-0.0010216236114501953,-0.042210254818201065,0.0061038765124976635,0.019182324409484863
2026-05-01T11:20:37.123000+00:00,1777634437123,S010,31,50,1777634437086,,1777634437123,watch_direct,1777634432331,0.004327505826950073,-0.016711533069610596,-0.002022266387939453,-0.13167861104011536,-0.0059048873372375965,0.010849347338080406
2026-05-01T11:20:37.123000+00:00,1777634437123,S010,31,50,1777634437086,,1777634437123,watch_direct,1777634432351,0.006020724773406982,-0.008022010326385498,-0.005074195563793182,-0.16833515465259552,-0.023153230547904968,-0.00397306215018034
2026-05-01T11:20:37.123000+00:00,1777634437123,S010,31,50,1777634437086,,1777634437123,watch_direct,1777634432371,0.0054916441440582275,-0.005728244781494141,0.003730781376361847,-0.17310701310634613,-0.03141834959387779,-0.02800675854086876
2026-05-01T11:20:37.123000+00:00,1777634437123,S010,31,50,1777634437086,,1777634437123,watch_direct,1777634432391,0.005082264542579651,-0.0019150376319885254,0.006240725517272949,-0.15992623567581177,-0.03874044492840767,-0.06486698240041733
2026-05-01T11:20:37.123000+00:00,1777634437123,S010,31,50,1777634437086,,1777634437123,watch_direct,1777634432411,3.743171691894531e-05,-0.0005245208740234375,0.00679093599319458,-0.12755098938941956,-0.04441465437412262,-0.09205146878957748
2026-05-01T11:20:37.428000+00:00,1777634437428,S010,32,50,1777634437312,,1777634437428,watch_direct,1777634432431,0.0010066032409667969,0.009499132633209229,0.0062119364738464355,-0.10970327258110046,-0.028937844559550285,-0.10363755375146866
2026-05-01T11:20:37.428000+00:00,1777634437428,S010,32,50,1777634437312,,1777634437428,watch_direct,1777634432451,0.002649560570716858,0.004660129547119141,0.010429270565509796,-0.031918466091156006,-0.03673892468214035,-0.08011016994714737
2026-05-01T11:20:37.428000+00:00,1777634437428,S010,32,50,1777634437312,,1777634437428,watch_direct,1777634432471,-0.0027818530797958374,0.012672364711761475,0.016760170459747314,0.06619691103696823,-0.03647489473223686,-0.05963701754808426
2026-05-01T11:20:37.428000+00:00,1777634437428,S010,32,50,1777634437312,,1777634437428,watch_direct,1777634432492,-0.004785403609275818,-0.0015516281127929688,0.015225894749164581,0.09278404712677002,-0.029960155487060547,-0.03268934413790703
2026-05-01T11:20:37.428000+00:00,1777634437428,S010,32,50,1777634437312,,1777634437428,watch_direct,1777634432512,-0.0023169219493865967,0.0034697651863098145,0.0075203850865364075,0.1027275025844574,-0.021506408229470253,-0.014317259192466736
2026-05-01T11:20:37.428000+00:00,1777634437428,S010,32,50,1777634437312,,1777634437428,watch_direct,1777634432532,0.00018997490406036377,-0.0039481520652771,0.004377134144306183,0.09829386323690414,-0.01924743875861168,-0.0057729859836399555
2026-05-01T11:20:37.428000+00:00,1777634437428,S010,32,50,1777634437312,,1777634437428,watch_direct,1777634432552,0.00033164024353027344,-0.009024202823638916,0.0017005205154418945,0.08361531794071198,-0.013298088684678078,-0.0020278890151530504
2026-05-01T11:20:37.428000+00:00,1777634437428,S010,32,50,1777634437312,,1777634437428,watch_direct,1777634432572,-0.0038171708583831787,0.0058928728103637695,0.005807101726531982,0.09677186608314514,0.00369938462972641,0.0003844553721137345
2026-05-01T11:20:37.428000+00:00,1777634437428,S010,32,50,1777634437312,,1777634437428,watch_direct,1777634432593,-0.0035941749811172485,0.0007396340370178223,0.010803528130054474,0.12440375983715057,0.010860206559300423,0.0002241330803371966
2026-05-01T11:20:37.428000+00:00,1777634437428,S010,32,50,1777634437312,,1777634437428,watch_direct,1777634432612,-0.0027607232332229614,-0.00869739055633545,0.0020994022488594055,0.10565696656703949,0.017787354066967964,0.023251155391335487
2026-05-01T11:20:38.281000+00:00,1777634438281,S010,33,50,1777634438125,,1777634438281,watch_direct,1777634432632,0.0022049546241760254,-0.0008002519607543945,0.0005219578742980957,0.10768815875053406,0.021873289719223976,0.01693807914853096
2026-05-01T11:20:38.281000+00:00,1777634438281,S010,33,50,1777634438125,,1777634438281,watch_direct,1777634432652,0.0015938282012939453,-0.005355358123779297,0.002445414662361145,0.09554654359817505,0.02024712599813938,0.0009328535525128245
2026-05-01T11:20:38.281000+00:00,1777634438281,S010,33,50,1777634438125,,1777634438281,watch_direct,1777634432672,-0.000981062650680542,-0.0016824007034301758,0.004479408264160156,0.06881639361381531,0.011546731926500797,-0.017546288669109344
2026-05-01T11:20:38.281000+00:00,1777634438281,S010,33,50,1777634438125,,1777634438281,watch_direct,1777634432698,-0.0015878379344940186,-0.005026102066040039,0.0017867237329483032,0.049431513994932175,0.008055022917687893,-0.012976677156984806
2026-05-01T11:20:38.281000+00:00,1777634438281,S010,33,50,1777634438125,,1777634438281,watch_direct,1777634432712,0.0006166845560073853,-0.0023166537284851074,0.0013715624809265137,0.05937229469418526,0.004460896831005812,-0.00894640851765871
2026-05-01T11:20:38.281000+00:00,1777634438281,S010,33,50,1777634438125,,1777634438281,watch_direct,1777634432733,-0.0010194182395935059,-0.003110349178314209,0.0009430646896362305,0.05526064336299896,0.010273055173456669,0.018111255019903183
2026-05-01T11:20:38.281000+00:00,1777634438281,S010,33,50,1777634438125,,1777634438281,watch_direct,1777634432753,-0.0019113421440124512,-0.0038713812828063965,0.0031870007514953613,0.0490884967148304,0.004777774214744568,0.04417960345745087
2026-05-01T11:20:38.281000+00:00,1777634438281,S010,33,50,1777634438125,,1777634438281,watch_direct,1777634432773,-0.004378214478492737,-7.170438766479492e-05,0.0005488395690917969,0.03424670174717903,0.004830542951822281,0.06526992470026016
2026-05-01T11:20:38.281000+00:00,1777634438281,S010,33,50,1777634438125,,1777634438281,watch_direct,1777634432793,0.0022146254777908325,-0.003756582736968994,-0.00017761439085006714,0.011784005910158157,-0.00284708384424448,0.0543709397315979
2026-05-01T11:20:38.281000+00:00,1777634438281,S010,33,50,1777634438125,,1777634438281,watch_direct,1777634432813,0.005495995283126831,-0.006436049938201904,0.00045959651470184326,-0.009748983196914196,-0.016548097133636475,0.03067263960838318
2026-05-01T11:20:38.605000+00:00,1777634438605,S010,34,50,1777634438589,,1777634438605,watch_direct,1777634432833,0.004081949591636658,-0.011035680770874023,-0.004429154098033905,-0.040936194360256195,-0.013430334627628326,-0.00685028824955225
2026-05-01T11:20:38.605000+00:00,1777634438605,S010,34,50,1777634438589,,1777634438605,watch_direct,1777634432853,0.003842964768409729,-0.005066096782684326,0.000937923789024353,-0.060432400554418564,-0.018069788813591003,-0.04901563748717308
2026-05-01T11:20:38.605000+00:00,1777634438605,S010,34,50,1777634438589,,1777634438605,watch_direct,1777634432873,0.005129411816596985,-0.0013452768325805664,0.0018896907567977905,-0.051955290138721466,-0.024613898247480392,-0.08945414423942566
2026-05-01T11:20:38.605000+00:00,1777634438605,S010,34,50,1777634438589,,1777634438605,watch_direct,1777634432893,0.002224177122116089,0.0010889768600463867,0.0035990923643112183,-0.031067322939634323,-0.022503608837723732,-0.10765897482633591
2026-05-01T11:20:38.605000+00:00,1777634438605,S010,34,50,1777634438589,,1777634438605,watch_direct,1777634432913,0.000334128737449646,0.004389345645904541,0.0035378187894821167,-0.008807290345430374,-0.01861995831131935,-0.1109342947602272
2026-05-01T11:20:38.605000+00:00,1777634438605,S010,34,50,1777634438589,,1777634438605,watch_direct,1777634432933,-0.003293648362159729,-0.003661811351776123,0.002260863780975342,-0.004012536257505417,-0.021762413904070854,-0.08660157769918442
2026-05-01T11:20:38.605000+00:00,1777634438605,S010,34,50,1777634438589,,1777634438605,watch_direct,1777634432953,-0.0039305537939071655,0.0011407136917114258,0.006912410259246826,0.0003968607634305954,-0.02497844584286213,-0.0488707609474659
2026-05-01T11:20:38.605000+00:00,1777634438605,S010,34,50,1777634438589,,1777634438605,watch_direct,1777634432974,-0.00702919065952301,0.0001195073127746582,0.0016201585531234741,0.02293013408780098,-0.010866698808968067,0.009711644612252712
2026-05-01T11:20:38.605000+00:00,1777634438605,S010,34,50,1777634438589,,1777634438605,watch_direct,1777634432994,-0.010065153241157532,0.007450580596923828,0.005217492580413818,0.05818266421556473,0.017995955422520638,0.06981098651885986
2026-05-01T11:20:38.605000+00:00,1777634438605,S010,34,50,1777634438589,,1777634438605,watch_direct,1777634433014,-0.009249493479728699,0.006736874580383301,0.004803597927093506,0.09462296217679977,0.044895630329847336,0.1292198747396469
2026-05-01T11:20:39.272000+00:00,1777634439272,S010,35,50,1777634438925,,1777634439272,watch_direct,1777634433034,-0.008561834692955017,-0.00028526782989501953,0.0050624459981918335,0.11515060812234879,0.06733721494674683,0.1797930896282196
2026-05-01T11:20:39.272000+00:00,1777634439272,S010,35,50,1777634438925,,1777634439272,watch_direct,1777634433054,-0.0036304444074630737,-0.0015194416046142578,0.0028449296951293945,0.11686674505472183,0.07192706316709518,0.1820836216211319
2026-05-01T11:20:39.272000+00:00,1777634439272,S010,35,50,1777634438925,,1777634439272,watch_direct,1777634433074,0.0038551241159439087,-0.003951728343963623,0.00043539702892303467,0.11064506322145462,0.06223330646753311,0.15386962890625
2026-05-01T11:20:39.272000+00:00,1777634439272,S010,35,50,1777634438925,,1777634439272,watch_direct,1777634433094,0.007897898554801941,-0.01229029893875122,-0.0062490105628967285,0.05583908036351204,0.051118604838848114,0.09001868218183517
2026-05-01T11:20:39.272000+00:00,1777634439272,S010,35,50,1777634438925,,1777634439272,watch_direct,1777634433114,0.010797664523124695,-0.01780635118484497,-0.008269175887107849,-0.021511632949113846,0.020074211061000824,0.01885102689266205
2026-05-01T11:20:39.272000+00:00,1777634439272,S010,35,50,1777634438925,,1777634439272,watch_direct,1777634433135,0.008772432804107666,-0.011948883533477783,-0.005771175026893616,-0.08768932521343231,-0.0067658876068890095,-0.046340759843587875
2026-05-01T11:20:39.272000+00:00,1777634439272,S010,35,50,1777634438925,,1777634439272,watch_direct,1777634433155,0.008134782314300537,-0.005574405193328857,0.0008458569645881653,-0.10076037794351578,-0.03444606065750122,-0.10280536860227585
2026-05-01T11:20:39.272000+00:00,1777634439272,S010,35,50,1777634438925,,1777634439272,watch_direct,1777634433175,0.007117703557014465,0.0036582350730895996,0.00439201295375824,-0.0448790080845356,-0.04840341955423355,-0.14026112854480743
2026-05-01T11:20:39.272000+00:00,1777634439272,S010,35,50,1777634438925,,1777634439272,watch_direct,1777634433195,0.004096090793609619,0.0058318376541137695,0.005542561411857605,0.013263657689094543,-0.04358834773302078,-0.14427073299884796
2026-05-01T11:20:39.272000+00:00,1777634439272,S010,35,50,1777634438925,,1777634439272,watch_direct,1777634433215,-0.0009937882423400879,-0.0025445222854614258,0.0027814507484436035,0.002979859709739685,-0.04655986651778221,-0.12405765801668167
2026-05-01T11:20:39.527000+00:00,1777634439527,S010,36,50,1777634439455,,1777634439527,watch_direct,1777634433235,-0.004189938306808472,7.867813110351562e-06,0.006187207996845245,0.00199236162006855,-0.04213559627532959,-0.09362491965293884
2026-05-01T11:20:39.527000+00:00,1777634439527,S010,36,50,1777634439455,,1777634439527,watch_direct,1777634433257,-0.0033781975507736206,0.004522204399108887,0.005195185542106628,0.02178417518734932,-0.02870858460664749,-0.06771315634250641
2026-05-01T11:20:39.527000+00:00,1777634439527,S010,36,50,1777634439455,,1777634439527,watch_direct,1777634433275,-0.0007164180278778076,0.008137941360473633,0.005950793623924255,0.1022167056798935,-0.007456102874130011,-0.051995132118463516
2026-05-01T11:20:39.527000+00:00,1777634439527,S010,36,50,1777634439455,,1777634439527,watch_direct,1777634433295,-0.0021307915449142456,0.005031883716583252,0.006030626595020294,0.14481449127197266,0.016908321529626846,-0.04452384263277054
2026-05-01T11:20:39.527000+00:00,1777634439527,S010,36,50,1777634439455,,1777634439527,watch_direct,1777634433315,-0.004077360033988953,-0.005306541919708252,0.001926608383655548,0.13142065703868866,0.02547704055905342,-0.04430892691016197
2026-05-01T11:20:39.527000+00:00,1777634439527,S010,36,50,1777634439455,,1777634439527,watch_direct,1777634433335,-0.003122955560684204,0.0014647841453552246,0.005271382629871368,0.13238899409770966,0.03827337920665741,-0.03889743611216545
2026-05-01T11:20:39.527000+00:00,1777634439527,S010,36,50,1777634439455,,1777634439527,watch_direct,1777634433355,0.0005893111228942871,0.0019215941429138184,0.0011171773076057434,0.1496494710445404,0.041222408413887024,-0.031836651265621185
2026-05-01T11:20:39.527000+00:00,1777634439527,S010,36,50,1777634439455,,1777634439527,watch_direct,1777634433376,0.0022226721048355103,0.00018101930618286133,0.0009245872497558594,0.1714935153722763,0.03523832559585571,-0.02024066261947155
2026-05-01T11:20:39.527000+00:00,1777634439527,S010,36,50,1777634439455,,1777634439527,watch_direct,1777634433396,-0.001857668161392212,-0.005454003810882568,0.0019779056310653687,0.15083324909210205,0.031561147421598434,-0.012535816989839077
2026-05-01T11:20:39.527000+00:00,1777634439527,S010,36,50,1777634439455,,1777634439527,watch_direct,1777634433416,-0.0049433112144470215,0.0005028843879699707,0.002018749713897705,0.1250746101140976,0.032958582043647766,0.0004539108485914767
2026-05-01T11:20:40.082000+00:00,1777634440082,S010,37,50,1777634439967,,1777634440082,watch_direct,1777634433436,-0.0016594529151916504,-0.005572676658630371,0.0005630403757095337,0.1169935092329979,0.038460180163383484,0.004821068607270718
2026-05-01T11:20:40.082000+00:00,1777634440082,S010,37,50,1777634439967,,1777634440082,watch_direct,1777634433456,0.004252895712852478,-0.0002459287643432617,-0.0009696930646896362,0.13923810422420502,0.03647235780954361,0.0021877349354326725
2026-05-01T11:20:40.082000+00:00,1777634440082,S010,37,50,1777634439967,,1777634440082,watch_direct,1777634433476,0.0027243196964263916,-0.004125058650970459,-0.0018366575241088867,0.13622553646564484,0.034248583018779755,-0.004087524488568306
2026-05-01T11:20:40.082000+00:00,1777634440082,S010,37,50,1777634439967,,1777634440082,watch_direct,1777634433496,0.00041481852531433105,-0.010307490825653076,8.213520050048828e-05,0.09560807049274445,0.023194104433059692,-0.016630960628390312
2026-05-01T11:20:40.082000+00:00,1777634440082,S010,37,50,1777634439967,,1777634440082,watch_direct,1777634433516,-0.0036901384592056274,-0.005437254905700684,0.0004342794418334961,0.07300155609846115,0.023992672562599182,-0.005010096821933985
2026-05-01T11:20:40.082000+00:00,1777634440082,S010,37,50,1777634439967,,1777634440082,watch_direct,1777634433536,-0.0018892288208007812,-4.851818084716797e-05,-0.0003884434700012207,0.07333524525165558,0.023059194907546043,0.011004609055817127
2026-05-01T11:20:40.082000+00:00,1777634440082,S010,37,50,1777634439967,,1777634440082,watch_direct,1777634433557,0.00039865076541900635,-0.0030153989791870117,-0.004422709345817566,0.07372353971004486,0.022564534097909927,0.033007699996232986
2026-05-01T11:20:40.082000+00:00,1777634440082,S010,37,50,1777634439967,,1777634440082,watch_direct,1777634433577,-0.0029287189245224,-0.0023356080055236816,-0.004366099834442139,0.04988665133714676,0.021650154143571854,0.0518350750207901
2026-05-01T11:20:40.082000+00:00,1777634440082,S010,37,50,1777634439967,,1777634440082,watch_direct,1777634433597,-0.0051155537366867065,-0.014102399349212646,-0.0012889355421066284,0.014394434168934822,0.0229636263102293,0.06808632612228394
2026-05-01T11:20:40.082000+00:00,1777634440082,S010,37,50,1777634439967,,1777634440082,watch_direct,1777634433617,0.00047616660594940186,-0.007324635982513428,-0.0036821216344833374,-0.009694121778011322,0.019619572907686234,0.06914908438920975
2026-05-01T11:20:40.292000+00:00,1777634440292,S010,38,50,1777634440281,,1777634440292,watch_direct,1777634433637,0.00851324200630188,-0.013027191162109375,-0.007733866572380066,-0.036046102643013,-0.0038164365105330944,0.04118248447775841
2026-05-01T11:20:40.292000+00:00,1777634440292,S010,38,50,1777634440281,,1777634440292,watch_direct,1777634433657,0.0108165442943573,-0.014653384685516357,-0.008383989334106445,-0.09277622401714325,-0.02735493890941143,-0.03521833196282387
2026-05-01T11:20:40.292000+00:00,1777634440292,S010,38,50,1777634440281,,1777634440292,watch_direct,1777634433682,0.010500103235244751,-0.023668885231018066,-0.010959863662719727,-0.1785329431295395,-0.059548866003751755,-0.13867440819740295
2026-05-01T11:20:40.292000+00:00,1777634440292,S010,38,50,1777634440281,,1777634440292,watch_direct,1777634433697,0.011193543672561646,-0.009637951850891113,-0.005177855491638184,-0.24029749631881714,-0.09361906349658966,-0.22008740901947021
2026-05-01T11:20:40.292000+00:00,1777634440292,S010,38,50,1777634440281,,1777634440292,watch_direct,1777634433717,0.004641294479370117,0.002813279628753662,-0.0027940869331359863,-0.22327803075313568,-0.10382170975208282,-0.24614302814006805
2026-05-01T11:20:40.292000+00:00,1777634440292,S010,38,50,1777634440281,,1777634440292,watch_direct,1777634433737,-0.0002536177635192871,0.008957624435424805,0.0024430230259895325,-0.1734718680381775,-0.10229378193616867,-0.22160205245018005
2026-05-01T11:20:40.292000+00:00,1777634440292,S010,38,50,1777634440281,,1777634440292,watch_direct,1777634433757,-0.007500097155570984,0.00894618034362793,0.003678262233734131,-0.14991621673107147,-0.08609779924154282,-0.1876099556684494
2026-05-01T11:20:40.292000+00:00,1777634440292,S010,38,50,1777634440281,,1777634440292,watch_direct,1777634433777,-0.005514219403266907,0.00483095645904541,0.003429710865020752,-0.168557807803154,-0.07221763581037521,-0.16885590553283691
2026-05-01T11:20:40.292000+00:00,1777634440292,S010,38,50,1777634440281,,1777634440292,watch_direct,1777634433798,-0.002489924430847168,-0.005107879638671875,-0.0035991519689559937,-0.1974506974220276,-0.06569547206163406,-0.15246708691120148
2026-05-01T11:20:40.292000+00:00,1777634440292,S010,38,50,1777634440281,,1777634440292,watch_direct,1777634433818,-0.005704984068870544,0.0044858455657958984,-0.002596333622932434,-0.21522250771522522,-0.04469797760248184,-0.10127852857112885
2026-05-01T11:20:40.503000+00:00,1777634440503,S010,39,50,1777634440539,,1777634440503,watch_direct,1777634433838,-0.011877879500389099,0.005399346351623535,-0.0018768757581710815,-0.20817019045352936,-0.021315762773156166,-0.03164186701178551
2026-05-01T11:20:40.503000+00:00,1777634440503,S010,39,50,1777634440539,,1777634440503,watch_direct,1777634433858,-0.012056112289428711,0.014404475688934326,0.00914137065410614,-0.1597059965133667,0.01615011878311634,0.02082080766558647
2026-05-01T11:20:40.503000+00:00,1777634440503,S010,39,50,1777634440539,,1777634440503,watch_direct,1777634433878,-0.01118806004524231,0.013282418251037598,0.010688439011573792,-0.07428856194019318,0.05002081021666527,0.06535732746124268
2026-05-01T11:20:40.503000+00:00,1777634440503,S010,39,50,1777634440539,,1777634440503,watch_direct,1777634433898,-0.004893973469734192,0.006196856498718262,0.012557104229927063,0.04286709055304527,0.07719387859106064,0.10526261478662491
2026-05-01T11:20:40.503000+00:00,1777634440503,S010,39,50,1777634440539,,1777634440503,watch_direct,1777634433918,-0.0041641294956207275,0.0036929845809936523,0.01217101514339447,0.14746807515621185,0.08329864591360092,0.14668281376361847
2026-05-01T11:20:40.503000+00:00,1777634440503,S010,39,50,1777634440539,,1777634440503,watch_direct,1777634433938,-0.0026620179414749146,-0.007540702819824219,0.006232738494873047,0.18116557598114014,0.07340819388628006,0.14499922096729279
2026-05-01T11:20:40.503000+00:00,1777634440503,S010,39,50,1777634440539,,1777634440503,watch_direct,1777634433958,-0.001392751932144165,-0.01080477237701416,0.0029380768537521362,0.18982936441898346,0.06179118528962135,0.12141335755586624
2026-05-01T11:20:40.503000+00:00,1777634440503,S010,39,50,1777634440539,,1777634440503,watch_direct,1777634433979,0.0012895464897155762,-0.013114511966705322,-0.0016594529151916504,0.1519312560558319,0.05344536900520325,0.10642508417367935
2026-05-01T11:20:40.503000+00:00,1777634440503,S010,39,50,1777634440539,,1777634440503,watch_direct,1777634433998,0.0034680962562561035,-0.010525286197662354,-0.0041624754667282104,0.11474660038948059,0.04950255900621414,0.09301047772169113
2026-05-01T11:20:40.503000+00:00,1777634440503,S010,39,50,1777634440539,,1777634440503,watch_direct,1777634434018,0.0027720630168914795,-0.011698544025421143,-0.004399113357067108,0.06284692138433456,0.024723974987864494,0.06736956536769867
2026-05-01T11:20:40.863000+00:00,1777634440863,S010,40,50,1777634440700,,1777634440863,watch_direct,1777634434039,0.003735572099685669,-0.013619959354400635,-0.0049376413226127625,-0.015869993716478348,0.0035774116404354572,0.03464516997337341
2026-05-01T11:20:40.863000+00:00,1777634440863,S010,40,50,1777634440700,,1777634440863,watch_direct,1777634434059,0.002738252282142639,-0.014455676078796387,-0.00695192813873291,-0.08735163509845734,-0.01332802977412939,0.02477640099823475
2026-05-01T11:20:40.863000+00:00,1777634440863,S010,40,50,1777634440700,,1777634440863,watch_direct,1777634434079,0.005940929055213928,-0.007817566394805908,-0.00298994779586792,-0.10574501752853394,-0.02801627665758133,0.006532842293381691
2026-05-01T11:20:40.863000+00:00,1777634440863,S010,40,50,1777634440700,,1777634440863,watch_direct,1777634434099,0.000268399715423584,0.008232474327087402,0.002464771270751953,-0.07664572447538376,-0.024282753467559814,-0.019549092277884483
2026-05-01T11:20:40.863000+00:00,1777634440863,S010,40,50,1777634440700,,1777634440863,watch_direct,1777634434119,0.0031720101833343506,0.0021592378616333008,0.007540524005889893,-0.03099195286631584,-0.03568949177861214,-0.03312348946928978
2026-05-01T11:20:40.863000+00:00,1777634440863,S010,40,50,1777634440700,,1777634440863,watch_direct,1777634434139,-0.0050923824310302734,0.010832011699676514,0.011086046695709229,0.026804232969880104,-0.021396419033408165,-0.011427143588662148
2026-05-01T11:20:40.863000+00:00,1777634440863,S010,40,50,1777634440700,,1777634440863,watch_direct,1777634434159,-0.0014033764600753784,0.010082244873046875,0.012551732361316681,0.10608094185590744,-0.02106999047100544,0.0009128265082836151
2026-05-01T11:20:40.863000+00:00,1777634440863,S010,40,50,1777634440700,,1777634440863,watch_direct,1777634434179,-0.003998070955276489,0.002955198287963867,0.005736894905567169,0.16130931675434113,-0.007416307460516691,0.028411295264959335
2026-05-01T11:20:40.863000+00:00,1777634440863,S010,40,50,1777634440700,,1777634440863,watch_direct,1777634434199,-0.0015019774436950684,0.004867136478424072,0.0030664801597595215,0.1853880137205124,0.008182283490896225,0.03843016177415848
2026-05-01T11:20:40.863000+00:00,1777634440863,S010,40,50,1777634440700,,1777634440863,watch_direct,1777634434219,0.0043168216943740845,0.005085885524749756,0.008188009262084961,0.22556127607822418,0.003518441691994667,-0.002380757825449109
2026-05-01T11:20:41.064000+00:00,1777634441064,S010,41,50,1777634441063,,1777634441064,watch_direct,1777634434241,0.004584997892379761,0.005806863307952881,0.007297337055206299,0.26662003993988037,0.014589164406061172,-0.07157762348651886
2026-05-01T11:20:41.064000+00:00,1777634441064,S010,41,50,1777634441063,,1777634441064,watch_direct,1777634434261,0.0029429644346237183,0.009768545627593994,0.006870046257972717,0.2675696909427643,0.014695956371724606,-0.11133616417646408
2026-05-01T11:20:41.064000+00:00,1777634441064,S010,41,50,1777634441063,,1777634441064,watch_direct,1777634434280,-0.0025057047605514526,-0.007390201091766357,-0.0042801350355148315,0.21307530999183655,0.027193143963813782,-0.09825588762760162
2026-05-01T11:20:41.064000+00:00,1777634441064,S010,41,50,1777634441063,,1777634441064,watch_direct,1777634434300,-0.004915803670883179,-0.015289723873138428,-0.011703908443450928,0.09063887596130371,0.03294861689209938,-0.048973292112350464
2026-05-01T11:20:41.064000+00:00,1777634441064,S010,41,50,1777634441063,,1777634441064,watch_direct,1777634434327,-0.00361555814743042,-0.0164911150932312,-0.011272549629211426,-0.01932544633746147,0.040806844830513,-0.004241774789988995
2026-05-01T11:20:41.064000+00:00,1777634441064,S010,41,50,1777634441063,,1777634441064,watch_direct,1777634434342,0.003937020897865295,-0.009114384651184082,-0.004412218928337097,-0.024988124147057533,0.017443502321839333,-0.038431327790021896
2026-05-01T11:20:41.064000+00:00,1777634441064,S010,41,50,1777634441063,,1777634441064,watch_direct,1777634434360,0.008794024586677551,0.015393078327178955,0.0025629401206970215,0.012456987053155899,0.008857395499944687,-0.11231679469347
2026-05-01T11:20:41.064000+00:00,1777634441064,S010,41,50,1777634441063,,1777634441064,watch_direct,1777634434380,0.0038233697414398193,0.004308640956878662,0.004305422306060791,0.02972918376326561,0.009801561012864113,-0.1502692848443985
2026-05-01T11:20:41.064000+00:00,1777634441064,S010,41,50,1777634441063,,1777634441064,watch_direct,1777634434401,0.012394353747367859,-0.00010919570922851562,0.014262661337852478,0.12826187908649445,-0.0409717932343483,-0.17180199921131134
2026-05-01T11:20:41.064000+00:00,1777634441064,S010,41,50,1777634441063,,1777634441064,watch_direct,1777634434421,-0.003920823335647583,0.02211242914199829,0.008238732814788818,0.20366503298282623,-0.031819120049476624,-0.15448907017707825
2026-05-01T11:20:41.319000+00:00,1777634441319,S010,42,50,1777634441318,,1777634441319,watch_direct,1777634434441,-0.010766029357910156,0.01835346221923828,0.0028122663497924805,0.17098325490951538,0.0016132923774421215,-0.06508424878120422
2026-05-01T11:20:41.319000+00:00,1777634441319,S010,42,50,1777634441318,,1777634441319,watch_direct,1777634434461,-0.014044106006622314,-0.031462907791137695,-0.012202933430671692,0.11167173087596893,0.030536629259586334,0.0471404567360878
2026-05-01T11:20:41.319000+00:00,1777634441319,S010,42,50,1777634441318,,1777634441319,watch_direct,1777634434481,-0.015581652522087097,-0.014214098453521729,-0.005563721060752869,0.05254554748535156,0.04681820794939995,0.16698190569877625
2026-05-01T11:20:41.319000+00:00,1777634441319,S010,42,50,1777634441318,,1777634441319,watch_direct,1777634434501,0.0032148510217666626,-0.005032062530517578,0.01903735101222992,0.2939877212047577,0.0010653662029653788,0.15808753669261932
2026-05-01T11:20:41.319000+00:00,1777634441319,S010,42,50,1777634441318,,1777634441319,watch_direct,1777634434521,0.009900033473968506,0.05727285146713257,0.033702075481414795,0.5788184404373169,-0.03365791589021683,0.09094413369894028
2026-05-01T11:20:41.319000+00:00,1777634441319,S010,42,50,1777634441318,,1777634441319,watch_direct,1777634434541,-0.014781132340431213,0.03863096237182617,0.005816757678985596,0.8254907727241516,-0.06947655975818634,0.03195894509553909
2026-05-01T11:20:41.319000+00:00,1777634441319,S010,42,50,1777634441318,,1777634441319,watch_direct,1777634434564,-0.06795454025268555,0.04222440719604492,0.004481151700019836,0.6510171890258789,0.08848024904727936,-0.03655385598540306
2026-05-01T11:20:41.319000+00:00,1777634441319,S010,42,50,1777634441318,,1777634441319,watch_direct,1777634434581,0.014143630862236023,-0.09116476774215698,0.021838605403900146,0.24100814759731293,-0.0002244789502583444,0.0017863434040918946
2026-05-01T11:20:41.319000+00:00,1777634441319,S010,42,50,1777634441318,,1777634441319,watch_direct,1777634434601,-0.03573143482208252,0.04570204019546509,-0.03525066375732422,0.35908177495002747,0.059986662119627,-0.03313414379954338
2026-05-01T11:20:41.319000+00:00,1777634441319,S010,42,50,1777634441318,,1777634441319,watch_direct,1777634434621,-0.022290349006652832,0.0035411715507507324,-0.009098932147026062,0.2149461805820465,0.06764108687639236,-0.006433503236621618
2026-05-01T11:20:41.582000+00:00,1777634441582,S010,43,50,1777634441532,,1777634441582,watch_direct,1777634434642,-0.016057416796684265,-0.03636062145233154,-0.015966475009918213,-0.057255249470472336,0.0948590412735939,-0.011556945741176605
2026-05-01T11:20:41.582000+00:00,1777634441582,S010,43,50,1777634441532,,1777634441582,watch_direct,1777634434662,0.0342942476272583,0.0205916166305542,-0.030058369040489197,0.12439390271902084,0.04962015897035599,-0.005230819806456566
2026-05-01T11:20:41.582000+00:00,1777634441582,S010,43,50,1777634441532,,1777634441582,watch_direct,1777634434682,0.06461888551712036,0.0426059365272522,0.004502728581428528,0.4305724799633026,-0.0137775344774127,-0.03028152510523796
2026-05-01T11:20:41.582000+00:00,1777634441582,S010,43,50,1777634441532,,1777634441582,watch_direct,1777634434702,0.05794268846511841,-0.04071831703186035,0.03205670416355133,0.34650924801826477,-0.060984767973423004,-0.057286351919174194
2026-05-01T11:20:41.582000+00:00,1777634441582,S010,43,50,1777634441532,,1777634441582,watch_direct,1777634434722,0.04916048049926758,-0.0355563759803772,0.018321052193641663,0.3054448962211609,-0.0910869687795639,-0.06292931735515594
2026-05-01T11:20:41.582000+00:00,1777634441582,S010,43,50,1777634441532,,1777634441582,watch_direct,1777634434742,0.03918898105621338,-0.02486109733581543,-0.021932244300842285,0.4270571172237396,-0.10789996385574341,-0.06335213035345078
2026-05-01T11:20:41.582000+00:00,1777634441582,S010,43,50,1777634441532,,1777634441582,watch_direct,1777634434762,0.028352126479148865,0.011191308498382568,0.014541581273078918,0.37273499369621277,-0.12890152633190155,-0.02409665286540985
2026-05-01T11:20:41.582000+00:00,1777634441582,S010,43,50,1777634441532,,1777634441582,watch_direct,1777634434782,0.02250935137271881,0.04848569631576538,0.01575559377670288,0.45140719413757324,-0.1735340654850006,0.029189473018050194
2026-05-01T11:20:41.582000+00:00,1777634441582,S010,43,50,1777634441532,,1777634441582,watch_direct,1777634434802,0.0021234899759292603,0.02946913242340088,-0.0024917125701904297,0.6294980645179749,-0.19961759448051453,0.005236521828919649
2026-05-01T11:20:41.582000+00:00,1777634441582,S010,43,50,1777634441532,,1777634441582,watch_direct,1777634434823,-0.004631012678146362,0.009688377380371094,0.01934713125228882,0.5856576561927795,-0.2590470016002655,0.008662572130560875
2026-05-01T11:20:41.879000+00:00,1777634441879,S010,44,50,1777634441894,,1777634441879,watch_direct,1777634434843,-0.022992506623268127,-0.026424109935760498,0.006082773208618164,0.46718162298202515,-0.2731781601905823,0.022691678255796432
2026-05-01T11:20:41.879000+00:00,1777634441879,S010,44,50,1777634441894,,1777634441879,watch_direct,1777634434863,-0.05505967140197754,0.005043447017669678,-0.02150300145149231,0.48572948575019836,-0.24852906167507172,0.04900844767689705
2026-05-01T11:20:41.879000+00:00,1777634441879,S010,44,50,1777634441894,,1777634441879,watch_direct,1777634434883,-0.02439691126346588,0.10151344537734985,0.09688085317611694,0.384967178106308,-0.20415759086608887,0.11319456994533539
2026-05-01T11:20:41.879000+00:00,1777634441879,S010,44,50,1777634441894,,1777634441879,watch_direct,1777634434903,-0.024080142378807068,0.003285706043243408,-0.018342256546020508,0.20368419587612152,-0.12548907101154327,0.10657486319541931
2026-05-01T11:20:41.879000+00:00,1777634441879,S010,44,50,1777634441894,,1777634441879,watch_direct,1777634434928,-0.029707610607147217,-0.09619194269180298,-0.039143502712249756,-0.1210843026638031,-0.027385907247662544,0.0830148383975029
2026-05-01T11:20:41.879000+00:00,1777634441879,S010,44,50,1777634441894,,1777634441879,watch_direct,1777634434943,-0.02329719066619873,-0.04164165258407593,0.0009923279285430908,-0.29735466837882996,0.0009105603094212711,0.088247150182724
2026-05-01T11:20:41.879000+00:00,1777634441879,S010,44,50,1777634441894,,1777634441879,watch_direct,1777634434963,-0.0005388706922531128,0.002886652946472168,0.00956830382347107,0.0029495004564523697,-0.04171234369277954,0.0339740552008152
2026-05-01T11:20:41.879000+00:00,1777634441879,S010,44,50,1777634441894,,1777634441879,watch_direct,1777634434983,-0.00643843412399292,0.020675957202911377,0.01941254734992981,0.3244441747665405,-0.047115057706832886,0.0038751140236854553
2026-05-01T11:20:41.879000+00:00,1777634441879,S010,44,50,1777634441894,,1777634441879,watch_direct,1777634435003,0.011301830410957336,-0.036357581615448,0.033403605222702026,0.14933894574642181,-0.05009293183684349,-0.030612928792834282
2026-05-01T11:20:41.879000+00:00,1777634441879,S010,44,50,1777634441894,,1777634441879,watch_direct,1777634435023,0.0022514313459396362,-0.06898295879364014,1.728534698486328e-05,-0.014527760446071625,-0.02297746203839779,-0.08624503016471863
2026-05-01T11:20:42.204000+00:00,1777634442204,S010,45,50,1777634442095,,1777634442204,watch_direct,1777634435043,0.0008441805839538574,-0.02987879514694214,-0.0522305965423584,0.07325215637683868,-0.016422852873802185,-0.12844330072402954
2026-05-01T11:20:42.204000+00:00,1777634442204,S010,45,50,1777634442095,,1777634442204,watch_direct,1777634435064,0.006851941347122192,-0.04523700475692749,-0.004875510931015015,0.0613720640540123,-0.053246837109327316,-0.16144892573356628
2026-05-01T11:20:42.204000+00:00,1777634442204,S010,45,50,1777634442095,,1777634442204,watch_direct,1777634435084,0.012780636548995972,-0.04059243202209473,0.023367643356323242,0.09291187673807144,-0.05345350131392479,-0.16146835684776306
2026-05-01T11:20:42.204000+00:00,1777634442204,S010,45,50,1777634442095,,1777634442204,watch_direct,1777634435104,0.010176733136177063,-0.03640139102935791,0.004881441593170166,0.14550025761127472,-0.038249969482421875,-0.20233435928821564
2026-05-01T11:20:42.204000+00:00,1777634442204,S010,45,50,1777634442095,,1777634442204,watch_direct,1777634435124,-0.0016845762729644775,-0.040692031383514404,-0.03802847862243652,0.13816910982131958,-0.006566416937857866,-0.2102247178554535
2026-05-01T11:20:42.204000+00:00,1777634442204,S010,45,50,1777634442095,,1777634442204,watch_direct,1777634435144,-0.02885863184928894,-0.0017260909080505371,-0.05512791872024536,0.1648784875869751,-0.0061524854972958565,-0.20414572954177856
2026-05-01T11:20:42.204000+00:00,1777634442204,S010,45,50,1777634442095,,1777634442204,watch_direct,1777634435164,-0.058784157037734985,0.04638952016830444,-0.03861600160598755,0.2419772744178772,0.055682118982076645,-0.16661544144153595
2026-05-01T11:20:42.204000+00:00,1777634442204,S010,45,50,1777634442095,,1777634442204,watch_direct,1777634435184,-0.019929036498069763,-0.09267586469650269,0.014031410217285156,0.21336773037910461,-0.02542140707373619,-0.19583187997341156
2026-05-01T11:20:42.204000+00:00,1777634442204,S010,45,50,1777634442095,,1777634442204,watch_direct,1777634435204,0.01216171681880951,0.10218751430511475,0.03908547759056091,0.3403797447681427,-0.09211015701293945,-0.12502487003803253
2026-05-01T11:20:42.204000+00:00,1777634442204,S010,45,50,1777634442095,,1777634442204,watch_direct,1777634435224,0.0162506103515625,0.12296217679977417,0.03861439228057861,0.2940519154071808,-0.07110729068517685,-0.06360789388418198
2026-05-01T11:20:42.433000+00:00,1777634442433,S010,46,50,1777634442446,,1777634442433,watch_direct,1777634435244,0.04894249141216278,0.03744226694107056,0.013968676328659058,0.20827282965183258,-0.09103195369243622,-0.03095967322587967
2026-05-01T11:20:42.433000+00:00,1777634442433,S010,46,50,1777634442446,,1777634442433,watch_direct,1777634435264,0.04738457500934601,0.012747883796691895,0.021784961223602295,0.05770569294691086,-0.09113132953643799,0.011472313664853573
2026-05-01T11:20:42.433000+00:00,1777634442433,S010,46,50,1777634442446,,1777634442433,watch_direct,1777634435285,0.04485669732093811,-0.004104554653167725,0.021340936422348022,0.03634713962674141,-0.0964304506778717,0.01599057950079441
2026-05-01T11:20:42.433000+00:00,1777634442433,S010,46,50,1777634442446,,1777634442433,watch_direct,1777634435305,0.04555743932723999,-0.004789471626281738,0.029027849435806274,0.06872132420539856,-0.09384451806545258,0.04354630410671234
2026-05-01T11:20:42.433000+00:00,1777634442433,S010,46,50,1777634442446,,1777634442433,watch_direct,1777634435327,0.015482679009437561,0.06046092510223389,-0.005248218774795532,0.34713563323020935,-0.09444129467010498,0.09703455865383148
2026-05-01T11:20:42.433000+00:00,1777634442433,S010,46,50,1777634442446,,1777634442433,watch_direct,1777634435345,0.011401370167732239,0.044979631900787354,-0.038181960582733154,0.6453407406806946,-0.05876992642879486,0.1275801658630371
2026-05-01T11:20:42.433000+00:00,1777634442433,S010,46,50,1777634442446,,1777634442433,watch_direct,1777634435365,-0.043910473585128784,-0.009374141693115234,-0.08251148462295532,0.9860495924949646,-0.002599790459498763,0.07094272971153259
2026-05-01T11:20:42.433000+00:00,1777634442433,S010,46,50,1777634442446,,1777634442433,watch_direct,1777634435385,-0.036980628967285156,-0.008744597434997559,0.06819474697113037,0.8358728289604187,-0.004383841995149851,0.060142114758491516
2026-05-01T11:20:42.433000+00:00,1777634442433,S010,46,50,1777634442446,,1777634442433,watch_direct,1777634435405,-0.04358994960784912,-0.09132969379425049,0.08405989408493042,0.4100288450717926,-0.0427987203001976,-0.027325468137860298
2026-05-01T11:20:42.433000+00:00,1777634442433,S010,46,50,1777634442446,,1777634442433,watch_direct,1777634435425,-0.040821194648742676,-0.06651175022125244,0.025242120027542114,0.185152068734169,-0.05615554004907608,-0.08112692087888718
2026-05-01T11:20:42.772000+00:00,1777634442772,S010,47,50,1777634442739,,1777634442772,watch_direct,1777634435445,-0.014527320861816406,-0.04678887128829956,-0.014187633991241455,0.11546006798744202,-0.046758729964494705,-0.06648650765419006
2026-05-01T11:20:42.772000+00:00,1777634442772,S010,47,50,1777634442739,,1777634442772,watch_direct,1777634435465,-0.00011739134788513184,0.04446899890899658,-0.05462634563446045,0.12935137748718262,-0.0061402348801493645,-0.03667694702744484
2026-05-01T11:20:42.772000+00:00,1777634442772,S010,47,50,1777634442739,,1777634442772,watch_direct,1777634435485,0.01258939504623413,-0.014393389225006104,-0.0035252273082733154,0.05982556194067001,-0.012388847768306732,-0.05602363869547844
2026-05-01T11:20:42.772000+00:00,1777634442772,S010,47,50,1777634442739,,1777634442772,watch_direct,1777634435505,0.028565645217895508,-0.034638285636901855,0.06359267234802246,-0.025890138000249863,-0.09015867114067078,-0.07676391303539276
2026-05-01T11:20:42.772000+00:00,1777634442772,S010,47,50,1777634442739,,1777634442772,watch_direct,1777634435526,0.0271451473236084,0.019176781177520752,0.07780712842941284,0.1118171215057373,-0.1665365993976593,-0.0917215570807457
2026-05-01T11:20:42.772000+00:00,1777634442772,S010,47,50,1777634442739,,1777634442772,watch_direct,1777634435546,0.01690182089805603,0.045620501041412354,0.04368400573730469,0.28080427646636963,-0.21065501868724823,-0.10431697964668274
2026-05-01T11:20:42.772000+00:00,1777634442772,S010,47,50,1777634442739,,1777634442772,watch_direct,1777634435566,0.024828240275382996,0.02459573745727539,-0.008626699447631836,0.4493858516216278,-0.2538760304450989,-0.07559307664632797
2026-05-01T11:20:42.772000+00:00,1777634442772,S010,47,50,1777634442739,,1777634442772,watch_direct,1777634435586,-0.002458512783050537,0.003078937530517578,0.005172401666641235,0.422619491815567,-0.21587547659873962,-0.08544448763132095
2026-05-01T11:20:42.772000+00:00,1777634442772,S010,47,50,1777634442739,,1777634442772,watch_direct,1777634435606,-0.00756971538066864,-0.0467684268951416,-0.04131346940994263,0.34956124424934387,-0.1883796602487564,-0.09113022685050964
2026-05-01T11:20:42.772000+00:00,1777634442772,S010,47,50,1777634442739,,1777634442772,watch_direct,1777634435626,-0.01815102994441986,0.00841975212097168,0.0061147212982177734,0.18983229994773865,-0.1666591912508011,-0.08060232549905777
2026-05-01T11:20:43.104000+00:00,1777634443104,S010,48,50,1777634443114,,1777634443104,watch_direct,1777634435647,-0.030460894107818604,0.05235326290130615,-0.04020893573760986,0.19664600491523743,-0.09704267233610153,-0.06951074302196503
2026-05-01T11:20:43.104000+00:00,1777634443104,S010,48,50,1777634443114,,1777634443104,watch_direct,1777634435667,-0.026172637939453125,-0.012412190437316895,-0.012562811374664307,0.12484665215015411,-0.05478009209036827,-0.06903829425573349
2026-05-01T11:20:43.104000+00:00,1777634443104,S010,48,50,1777634443114,,1777634443104,watch_direct,1777634435687,0.007298797369003296,-0.03567147254943848,0.0017791688442230225,-0.029687270522117615,-0.04464969411492348,-0.08474642038345337
2026-05-01T11:20:43.104000+00:00,1777634443104,S010,48,50,1777634443114,,1777634443104,watch_direct,1777634435707,0.009008750319480896,-0.028334975242614746,-0.0012577176094055176,-0.09979232400655746,-0.030217036604881287,-0.07296033203601837
2026-05-01T11:20:43.104000+00:00,1777634443104,S010,48,50,1777634443114,,1777634443104,watch_direct,1777634435727,0.017454296350479126,0.0043187737464904785,0.013458162546157837,-0.07890595495700836,-0.03405248373746872,-0.0538969449698925
2026-05-01T11:20:43.104000+00:00,1777634443104,S010,48,50,1777634443114,,1777634443104,watch_direct,1777634435747,0.022921651601791382,0.038413166999816895,0.02240315079689026,0.041248682886362076,-0.03856798633933067,-0.022326769307255745
2026-05-01T11:20:43.104000+00:00,1777634443104,S010,48,50,1777634443114,,1777634443104,watch_direct,1777634435767,0.013066843152046204,0.026793241500854492,0.004432737827301025,0.1320856511592865,-0.028327181935310364,-0.016248583793640137
2026-05-01T11:20:43.104000+00:00,1777634443104,S010,48,50,1777634443114,,1777634443104,watch_direct,1777634435787,-0.005309611558914185,-0.0005118250846862793,-0.0008987486362457275,0.1052313968539238,-0.017295798286795616,-0.00989886187016964
2026-05-01T11:20:43.104000+00:00,1777634443104,S010,48,50,1777634443114,,1777634443104,watch_direct,1777634435807,-0.015091970562934875,-0.004436910152435303,0.0015191733837127686,0.10070295631885529,0.0071848914958536625,-0.014670927077531815
2026-05-01T11:20:43.104000+00:00,1777634443104,S010,48,50,1777634443114,,1777634443104,watch_direct,1777634435828,-0.004404827952384949,0.0014328360557556152,0.000830233097076416,0.1190476045012474,0.010170751251280308,-0.015619331039488316
2026-05-01T11:20:43.362000+00:00,1777634443362,S010,49,50,1777634443296,,1777634443362,watch_direct,1777634435847,0.007823273539543152,-0.00027120113372802734,0.012281686067581177,0.07468626648187637,0.002758946269750595,-0.023712892085313797
2026-05-01T11:20:43.362000+00:00,1777634443362,S010,49,50,1777634443296,,1777634443362,watch_direct,1777634435867,0.007357880473136902,0.009162068367004395,-0.004317879676818848,0.11408081650733948,-0.0011441444512456656,-0.02655496448278427
2026-05-01T11:20:43.362000+00:00,1777634443362,S010,49,50,1777634443296,,1777634443362,watch_direct,1777634435888,0.006279200315475464,-0.0029550790786743164,0.006008923053741455,0.1252029836177826,-0.0008160050492733717,-0.034475840628147125
2026-05-01T11:20:43.362000+00:00,1777634443362,S010,49,50,1777634443296,,1777634443362,watch_direct,1777634435908,0.008861154317855835,-0.007569611072540283,0.004010409116744995,0.10736033320426941,-0.009101632051169872,-0.029307393357157707
2026-05-01T11:20:43.362000+00:00,1777634443362,S010,49,50,1777634443296,,1777634443362,watch_direct,1777634435928,4.787743091583252e-05,-0.00956881046295166,0.012330412864685059,0.07926717400550842,-0.007274246774613857,-0.03874462470412254
2026-05-01T11:20:43.362000+00:00,1777634443362,S010,49,50,1777634443296,,1777634443362,watch_direct,1777634435948,-0.0016471147537231445,0.00140458345413208,-0.00034755468368530273,-0.015142950229346752,-0.009026378393173218,-0.014102128334343433
2026-05-01T11:20:43.362000+00:00,1777634443362,S010,49,50,1777634443296,,1777634443362,watch_direct,1777634435968,-0.0030947476625442505,-0.003365159034729004,0.01370897889137268,-0.03798115625977516,-0.0028391703963279724,-0.009421303868293762
2026-05-01T11:20:43.362000+00:00,1777634443362,S010,49,50,1777634443296,,1777634443362,watch_direct,1777634435988,-0.00468870997428894,-0.0063523054122924805,-0.0003414154052734375,-0.030833495780825615,-0.010193870402872562,-0.01688113808631897
2026-05-01T11:20:43.362000+00:00,1777634443362,S010,49,50,1777634443296,,1777634443362,watch_direct,1777634436008,-0.0036355406045913696,-0.005558490753173828,0.015422821044921875,-0.05495161563158035,-0.0021247966215014458,-0.01313050091266632
2026-05-01T11:20:43.362000+00:00,1777634443362,S010,49,50,1777634443296,,1777634443362,watch_direct,1777634436028,0.0009991377592086792,-0.005182504653930664,0.012151330709457397,-0.05788348987698555,0.0024028816260397434,-0.009650015272200108
