local_ts,local_ts_ms,session_id,sequence,sample_rate_hz,watch_sent_at,phone_received_at,server_received_ms,source,ts,ax,ay,az,rx,ry,rz
2026-05-01T11:46:42.165000+00:00,1777636002165,S011,1,50,1777636001945,,1777636002165,watch_direct,1777636001790,0.01516006886959076,0.05873867869377136,-0.026902437210083008,0.22283871471881866,-0.07003391534090042,0.20728661119937897
2026-05-01T11:46:42.165000+00:00,1777636002165,S011,1,50,1777636001945,,1777636002165,watch_direct,1777636001797,0.030904531478881836,0.008534371852874756,-0.03173995018005371,0.2658482491970062,-0.06273568421602249,0.21892309188842773
2026-05-01T11:46:42.165000+00:00,1777636002165,S011,1,50,1777636001945,,1777636002165,watch_direct,1777636001805,0.03101995587348938,-0.01617460697889328,0.006211280822753906,0.19181768596172333,-0.08099663257598877,0.20926208794116974
2026-05-01T11:46:42.165000+00:00,1777636002165,S011,1,50,1777636001945,,1777636002165,watch_direct,1777636001824,0.023956298828125,-0.03659045696258545,0.011008620262145996,0.13809852302074432,-0.09102754294872284,0.19961798191070557
2026-05-01T11:46:42.165000+00:00,1777636002165,S011,1,50,1777636001945,,1777636002165,watch_direct,1777636001844,0.013819262385368347,0.004346244037151337,-0.01992720365524292,0.20056085288524628,-0.10017230361700058,0.18885231018066406
2026-05-01T11:46:42.165000+00:00,1777636002165,S011,1,50,1777636001945,,1777636002165,watch_direct,1777636001864,0.0030222833156585693,0.018889784812927246,-0.02830195426940918,0.3251110315322876,-0.08957003057003021,0.18235613405704498
2026-05-01T11:46:42.165000+00:00,1777636002165,S011,1,50,1777636001945,,1777636002165,watch_direct,1777636001884,-0.007019326090812683,0.051243387162685394,-0.04151338338851929,0.4490678608417511,-0.0631813034415245,0.19711270928382874
2026-05-01T11:46:42.165000+00:00,1777636002165,S011,1,50,1777636001945,,1777636002165,watch_direct,1777636001904,-0.018774449825286865,0.025651611387729645,-0.0453982949256897,0.45604294538497925,-0.013938616961240768,0.20419234037399292
2026-05-01T11:46:42.165000+00:00,1777636002165,S011,1,50,1777636001945,,1777636002165,watch_direct,1777636001924,-0.01627276837825775,0.008892275393009186,0.0026938319206237793,0.39212706685066223,0.022203560918569565,0.21002645790576935
2026-05-01T11:46:42.165000+00:00,1777636002165,S011,1,50,1777636001945,,1777636002165,watch_direct,1777636001944,-0.012701272964477539,0.011461228132247925,0.0012295246124267578,0.39232149720191956,0.03663210943341255,0.22762587666511536
2026-05-01T11:46:42.446000+00:00,1777636002446,S011,2,50,1777636002376,,1777636002446,watch_direct,1777636001973,-0.027246281504631042,0.0459325946867466,-0.040439486503601074,0.478110671043396,0.08309795707464218,0.24571986496448517
2026-05-01T11:46:42.446000+00:00,1777636002446,S011,2,50,1777636002376,,1777636002446,watch_direct,1777636001993,-0.021000444889068604,0.050662338733673096,-0.028848707675933838,0.48613613843917847,0.10303255170583725,0.2748119831085205
2026-05-01T11:46:42.446000+00:00,1777636002446,S011,2,50,1777636002376,,1777636002446,watch_direct,1777636002013,-0.004672154784202576,0.012402091175317764,0.03693646192550659,0.3296482563018799,0.07131411135196686,0.24888876080513
2026-05-01T11:46:42.446000+00:00,1777636002446,S011,2,50,1777636002376,,1777636002446,watch_direct,1777636002035,0.00801907479763031,-0.014146093279123306,0.05028653144836426,0.29571717977523804,0.024657929316163063,0.18397627770900726
2026-05-01T11:46:42.446000+00:00,1777636002446,S011,2,50,1777636002376,,1777636002446,watch_direct,1777636002055,0.017602890729904175,-0.028367990627884865,0.036578476428985596,0.2283826321363449,-0.004490482620894909,0.1555628627538681
2026-05-01T11:46:42.446000+00:00,1777636002446,S011,2,50,1777636002376,,1777636002446,watch_direct,1777636002073,0.006255686283111572,-0.01463831216096878,-0.009005486965179443,0.29032373428344727,-0.0230982918292284,0.10491582006216049
2026-05-01T11:46:42.446000+00:00,1777636002446,S011,2,50,1777636002376,,1777636002446,watch_direct,1777636002094,0.007647529244422913,-0.03417004644870758,-0.0005480051040649414,0.268818736076355,-0.02608267031610012,0.06729627400636673
2026-05-01T11:46:42.446000+00:00,1777636002446,S011,2,50,1777636002376,,1777636002446,watch_direct,1777636002114,0.011608779430389404,-0.043521031737327576,0.01918637752532959,0.14271725714206696,-0.052718695253133774,0.036475349217653275
2026-05-01T11:46:42.446000+00:00,1777636002446,S011,2,50,1777636002376,,1777636002446,watch_direct,1777636002134,0.007678985595703125,-0.043557070195674896,0.03791755437850952,0.04506845772266388,-0.08875536918640137,0.009859663434326649
2026-05-01T11:46:42.446000+00:00,1777636002446,S011,2,50,1777636002376,,1777636002446,watch_direct,1777636002154,-0.001694008708000183,-0.02312089130282402,0.007309675216674805,-0.02045941911637783,-0.08918646723031998,-0.005587789695709944
2026-05-01T11:46:42.446000+00:00,1777636002446,S011,2,50,1777636002376,,1777636002446,watch_direct,1777636002174,-0.007594272494316101,-0.010184286162257195,-0.026867330074310303,-0.036797381937503815,-0.05562184005975723,-0.01305358950048685
2026-05-01T11:46:42.446000+00:00,1777636002446,S011,2,50,1777636002376,,1777636002446,watch_direct,1777636002194,-0.01324598491191864,0.003568250685930252,-0.030064642429351807,-0.02401447296142578,-0.019250748679041862,-0.012748710811138153
2026-05-01T11:46:42.446000+00:00,1777636002446,S011,2,50,1777636002376,,1777636002446,watch_direct,1777636002214,-0.0077102333307266235,0.004556315019726753,-0.011074483394622803,-0.03419040888547897,0.0002182146126870066,0.007516880519688129
2026-05-01T11:46:42.446000+00:00,1777636002446,S011,2,50,1777636002376,,1777636002446,watch_direct,1777636002234,-0.001135408878326416,0.011733007617294788,-0.013918399810791016,-0.010921839624643326,0.016877010464668274,0.007289233151823282
2026-05-01T11:46:42.446000+00:00,1777636002446,S011,2,50,1777636002376,,1777636002446,watch_direct,1777636002254,0.0063466876745224,0.007990770041942596,-0.022387802600860596,0.01835828460752964,0.01814383640885353,0.009960649535059929
2026-05-01T11:46:42.446000+00:00,1777636002446,S011,2,50,1777636002376,,1777636002446,watch_direct,1777636002274,0.0067301541566848755,0.012693285010755062,-0.02051866054534912,0.02053248882293701,0.024547409266233444,0.005209038034081459
2026-05-01T11:46:42.446000+00:00,1777636002446,S011,2,50,1777636002376,,1777636002446,watch_direct,1777636002294,0.00838400423526764,0.015307972207665443,0.017187893390655518,-0.005979012697935104,0.005017497111111879,0.027793122455477715
2026-05-01T11:46:42.446000+00:00,1777636002446,S011,2,50,1777636002376,,1777636002446,watch_direct,1777636002314,0.019092589616775513,0.01364369411021471,0.03651738166809082,-0.04241505265235901,-0.016408318653702736,0.053005218505859375
2026-05-01T11:46:42.446000+00:00,1777636002446,S011,2,50,1777636002376,,1777636002446,watch_direct,1777636002335,0.01021835207939148,0.013679218478500843,0.005259335041046143,-0.04564706236124039,-0.039350155740976334,0.07031746953725815
2026-05-01T11:46:42.446000+00:00,1777636002446,S011,2,50,1777636002376,,1777636002446,watch_direct,1777636002355,0.01163974404335022,0.01962045207619667,0.002168595790863037,-0.009435262531042099,-0.050293393433094025,0.07909487187862396
2026-05-01T11:46:43.496000+00:00,1777636003496,S011,1,50,1777636003296,,1777636003496,watch_direct,1777636003130,-0.024788767099380493,0.022577695548534393,-0.01559215784072876,0.020358582958579063,-0.029921462759375572,0.049390774220228195
2026-05-01T11:46:43.496000+00:00,1777636003496,S011,1,50,1777636003296,,1777636003496,watch_direct,1777636003136,-0.00839756429195404,0.0004422292113304138,-0.007277548313140869,0.055999934673309326,-0.02842819131910801,0.10644884407520294
2026-05-01T11:46:43.496000+00:00,1777636003496,S011,1,50,1777636003296,,1777636003496,watch_direct,1777636003155,-0.03174673020839691,-0.005642141215503216,-0.006741225719451904,0.03735913708806038,-0.004478878807276487,0.15523682534694672
2026-05-01T11:46:43.496000+00:00,1777636003496,S011,1,50,1777636003296,,1777636003496,watch_direct,1777636003175,-0.016603708267211914,0.011184217408299446,-0.013570845127105713,0.09117044508457184,0.00041673413943499327,0.1371365487575531
2026-05-01T11:46:43.496000+00:00,1777636003496,S011,1,50,1777636003296,,1777636003496,watch_direct,1777636003195,-0.02372036874294281,-0.0017535984516143799,-0.025041818618774414,0.12327057868242264,0.025009579956531525,0.08306202292442322
2026-05-01T11:46:43.496000+00:00,1777636003496,S011,1,50,1777636003296,,1777636003496,watch_direct,1777636003215,-0.008263826370239258,-0.0012102252803742886,-0.012599766254425049,0.1580013930797577,0.027614418417215347,0.01457058172672987
2026-05-01T11:46:43.496000+00:00,1777636003496,S011,1,50,1777636003296,,1777636003496,watch_direct,1777636003235,0.0022216588258743286,-0.008770698681473732,0.002490520477294922,0.128123939037323,0.04153434559702873,0.01137366984039545
2026-05-01T11:46:43.496000+00:00,1777636003496,S011,1,50,1777636003296,,1777636003496,watch_direct,1777636003255,0.006590813398361206,-0.002315727062523365,-0.0037517547607421875,0.08978239446878433,0.039005253463983536,0.025847842916846275
2026-05-01T11:46:43.496000+00:00,1777636003496,S011,1,50,1777636003296,,1777636003496,watch_direct,1777636003276,0.0021982342004776,-0.013604157604277134,-0.0017766356468200684,0.02761782892048359,0.044086527079343796,0.0016697501996532083
2026-05-01T11:46:43.496000+00:00,1777636003496,S011,1,50,1777636003296,,1777636003496,watch_direct,1777636003296,0.02442196011543274,-0.008553486317396164,0.002625584602355957,-0.0025736279785633087,0.027220308780670166,0.004077354446053505
2026-05-01T11:46:44+00:00,1777636004000,S011,2,50,1777636003657,,1777636004000,watch_direct,1777636003316,0.025977611541748047,-0.0022100380156189203,0.007849693298339844,-0.025195052847266197,0.00540396012365818,0.016622334718704224
2026-05-01T11:46:44+00:00,1777636004000,S011,2,50,1777636003657,,1777636004000,watch_direct,1777636003336,0.017790526151657104,0.011714398860931396,0.008053839206695557,-0.007837899029254913,-0.024480056017637253,-0.000397022464312613
2026-05-01T11:46:44+00:00,1777636004000,S011,2,50,1777636003657,,1777636004000,watch_direct,1777636003356,0.002761155366897583,0.004782396834343672,-0.0038295984268188477,0.011650847271084785,-0.03001406602561474,-0.01743219792842865
2026-05-01T11:46:44+00:00,1777636004000,S011,2,50,1777636003657,,1777636004000,watch_direct,1777636003383,-0.007199510931968689,0.012050488963723183,-0.015111148357391357,0.040770385414361954,-0.013932416215538979,-0.004128537140786648
2026-05-01T11:46:44+00:00,1777636004000,S011,2,50,1777636003657,,1777636004000,watch_direct,1777636003404,-0.0040023475885391235,-0.0003676377236843109,-0.016605854034423828,0.030009880661964417,-0.008710261434316635,0.01344454474747181
2026-05-01T11:46:44+00:00,1777636004000,S011,2,50,1777636003657,,1777636004000,watch_direct,1777636003424,-0.005025595426559448,0.0011549994815140963,-0.010209977626800537,0.029216792434453964,0.0005549903144128621,0.0410393662750721
2026-05-01T11:46:44+00:00,1777636004000,S011,2,50,1777636003657,,1777636004000,watch_direct,1777636003444,-0.006061524152755737,0.004999265540391207,-0.008834660053253174,0.06849895417690277,-0.06042938306927681,0.06395405530929565
2026-05-01T11:46:44+00:00,1777636004000,S011,2,50,1777636003657,,1777636004000,watch_direct,1777636003464,-0.0052027106285095215,0.006858318578451872,-0.005919933319091797,0.07595314085483551,-0.019308196380734444,0.03246904909610748
2026-05-01T11:46:44+00:00,1777636004000,S011,2,50,1777636003657,,1777636004000,watch_direct,1777636003484,-0.005919933319091797,0.00818860623985529,0.001938462257385254,0.0870705097913742,-0.0060326047241687775,-0.045737605541944504
2026-05-01T11:46:44+00:00,1777636004000,S011,2,50,1777636003657,,1777636004000,watch_direct,1777636003504,-0.012225225567817688,0.007502996362745762,-0.01303642988204956,0.08413863182067871,0.016537494957447052,-0.04681006073951721
2026-05-01T11:46:44+00:00,1777636004000,S011,2,50,1777636003657,,1777636004000,watch_direct,1777636003524,0.002398192882537842,0.0023785708472132683,-0.0037080049514770508,0.08608487248420715,0.014405748806893826,-0.0245688296854496
2026-05-01T11:46:44+00:00,1777636004000,S011,2,50,1777636003657,,1777636004000,watch_direct,1777636003544,0.01167432963848114,-0.003289814107120037,0.003369748592376709,0.07145479321479797,-0.002618013881146908,0.02386309765279293
2026-05-01T11:46:44+00:00,1777636004000,S011,2,50,1777636003657,,1777636004000,watch_direct,1777636003564,0.011428475379943848,0.001715053804218769,-0.0033614039421081543,0.12165085971355438,-0.01507266703993082,0.02921232208609581
2026-05-01T11:46:44+00:00,1777636004000,S011,2,50,1777636003657,,1777636004000,watch_direct,1777636003584,-0.00011639297008514404,-0.0073301782831549644,0.005573868751525879,0.014724668115377426,-0.011730590835213661,0.23873379826545715
2026-05-01T11:46:44+00:00,1777636004000,S011,2,50,1777636003657,,1777636004000,watch_direct,1777636003604,-0.053887367248535156,-0.01431556511670351,-0.0012372732162475586,0.0525524765253067,0.0012878160923719406,0.01189399790018797
2026-05-01T11:46:44+00:00,1777636004000,S011,2,50,1777636003657,,1777636004000,watch_direct,1777636003627,0.017682045698165894,0.0016734879463911057,-0.004512786865234375,0.06762810051441193,0.017200319096446037,0.04914134368300438
2026-05-01T11:46:44+00:00,1777636004000,S011,2,50,1777636003657,,1777636004000,watch_direct,1777636003644,0.002734467387199402,-0.004550466313958168,-0.004496932029724121,0.027035929262638092,0.0006223301752470434,0.029528705403208733
2026-05-01T11:46:51.005000+00:00,1777636011005,S011,1,50,1777636010625,1777636011023,1777636011005,watch_phone_bridge,1777636010482,0.02891632914543152,-0.018922626972198486,-0.059737324714660645,0.036247268319129944,-0.007701874244958162,-0.020476777106523514
2026-05-01T11:46:51.005000+00:00,1777636011005,S011,1,50,1777636010625,1777636011023,1777636011005,watch_phone_bridge,1777636010504,0.029341071844100952,-0.0216558575630188,-0.06175732612609863,0.06082425266504288,-0.006951091345399618,-0.00887311901897192
2026-05-01T11:46:51.005000+00:00,1777636011005,S011,1,50,1777636010625,1777636011023,1777636011005,watch_phone_bridge,1777636010511,0.02898573875427246,-0.022093534469604492,-0.05958002805709839,0.0783366709947586,-0.0025337059050798416,0.004138926975429058
2026-05-01T11:46:51.005000+00:00,1777636011005,S011,1,50,1777636010625,1777636011023,1777636011005,watch_phone_bridge,1777636010519,0.028095781803131104,-0.020969033241271973,-0.061259329319000244,0.08810301125049591,0.0038122644182294607,0.02754044160246849
2026-05-01T11:46:51.005000+00:00,1777636011005,S011,1,50,1777636010625,1777636011023,1777636011005,watch_phone_bridge,1777636010524,0.025846749544143677,-0.018974661827087402,-0.05927036702632904,0.1006598174571991,0.012116152793169022,0.04958086833357811
2026-05-01T11:46:51.005000+00:00,1777636011005,S011,1,50,1777636010625,1777636011023,1777636011005,watch_phone_bridge,1777636010545,0.026979655027389526,-0.019815444946289062,-0.05983363091945648,0.12179200351238251,0.026202257722616196,0.06785308569669724
2026-05-01T11:46:51.005000+00:00,1777636011005,S011,1,50,1777636010625,1777636011023,1777636011005,watch_phone_bridge,1777636010565,0.02849295735359192,-0.020150840282440186,-0.05825912952423096,0.14274922013282776,0.03154239058494568,0.06936661154031754
2026-05-01T11:46:51.005000+00:00,1777636011005,S011,1,50,1777636010625,1777636011023,1777636011005,watch_phone_bridge,1777636010585,0.029490232467651367,-0.022522032260894775,-0.05845499038696289,0.14880017936229706,0.028986480087041855,0.06059091165661812
2026-05-01T11:46:51.005000+00:00,1777636011005,S011,1,50,1777636010625,1777636011023,1777636011005,watch_phone_bridge,1777636010605,0.0296802818775177,-0.026212036609649658,-0.06253831088542938,0.12465303391218185,0.022045331075787544,0.05364581197500229
2026-05-01T11:46:51.005000+00:00,1777636011005,S011,1,50,1777636010625,1777636011023,1777636011005,watch_phone_bridge,1777636010625,0.029996365308761597,-0.02930283546447754,-0.06235824525356293,0.08376765251159668,0.013258153572678566,0.042708318680524826
2026-05-01T11:46:51.061000+00:00,1777636011061,S011,2,50,1777636010833,1777636011042,1777636011061,watch_phone_bridge,1777636010645,0.02999967336654663,-0.02775442600250244,-0.060560524463653564,0.04259917140007019,-0.0020614895038306713,0.026561250910162926
2026-05-01T11:46:51.061000+00:00,1777636011061,S011,2,50,1777636010833,1777636011042,1777636011061,watch_phone_bridge,1777636010672,0.03174090385437012,-0.02048391103744507,-0.0598071813583374,-0.0035046711564064026,-0.010786538012325764,-0.0028863856568932533
2026-05-01T11:46:51.061000+00:00,1777636011061,S011,2,50,1777636010833,1777636011042,1777636011061,watch_phone_bridge,1777636010692,0.029936224222183228,-0.02532094717025757,-0.054286226630210876,-0.03592812269926071,-0.023095401003956795,-0.03684142604470253
2026-05-01T11:46:51.061000+00:00,1777636011061,S011,2,50,1777636010833,1777636011042,1777636011061,watch_phone_bridge,1777636010712,0.026030808687210083,-0.02446281909942627,-0.053751230239868164,-0.05451006442308426,-0.027296271175146103,-0.05380576103925705
2026-05-01T11:46:51.061000+00:00,1777636011061,S011,2,50,1777636010833,1777636011042,1777636011061,watch_phone_bridge,1777636010734,0.02568209171295166,-0.020131170749664307,-0.05031144618988037,-0.07010526955127716,-0.029355959966778755,-0.05986658111214638
2026-05-01T11:46:51.061000+00:00,1777636011061,S011,2,50,1777636010833,1777636011042,1777636011061,watch_phone_bridge,1777636010753,0.023421406745910645,-0.018276989459991455,-0.04497826099395752,-0.0614800900220871,-0.028055613860487938,-0.06488621234893799
2026-05-01T11:46:51.061000+00:00,1777636011061,S011,2,50,1777636010833,1777636011042,1777636011061,watch_phone_bridge,1777636010773,0.019415736198425293,-0.015415370464324951,-0.041751980781555176,-0.045817770063877106,-0.03087293542921543,-0.06407048553228378
2026-05-01T11:46:51.061000+00:00,1777636011061,S011,2,50,1777636010833,1777636011042,1777636011061,watch_phone_bridge,1777636010793,0.019853711128234863,-0.01846212148666382,-0.0424329936504364,-0.049298789352178574,-0.027930598706007004,-0.05729151889681816
2026-05-01T11:46:51.061000+00:00,1777636011061,S011,2,50,1777636010833,1777636011042,1777636011061,watch_phone_bridge,1777636010813,0.018745452165603638,-0.01844346523284912,-0.04012206196784973,-0.04174260050058365,-0.02907039411365986,-0.04952147603034973
2026-05-01T11:46:51.061000+00:00,1777636011061,S011,2,50,1777636010833,1777636011042,1777636011061,watch_phone_bridge,1777636010833,0.016717582941055298,-0.01382303237915039,-0.03799739480018616,-0.02346612885594368,-0.02555753104388714,-0.04157348722219467
2026-05-01T11:46:51.093000+00:00,1777636011093,S011,3,50,1777636011034,1777636011108,1777636011093,watch_phone_bridge,1777636010853,0.017213493585586548,-0.010576784610748291,-0.033862173557281494,-0.010050718672573566,-0.02944844774901867,-0.03650251030921936
2026-05-01T11:46:51.093000+00:00,1777636011093,S011,3,50,1777636011034,1777636011108,1777636011093,watch_phone_bridge,1777636010874,0.01486891508102417,-0.014290273189544678,-0.03643970191478729,-0.015441224910318851,-0.02945217676460743,-0.025955379009246826
2026-05-01T11:46:51.093000+00:00,1777636011093,S011,3,50,1777636011034,1777636011108,1777636011093,watch_phone_bridge,1777636010893,0.013950556516647339,-0.014472126960754395,-0.03487426042556763,-0.028285648673772812,-0.02851002663373947,-0.019398996606469154
2026-05-01T11:46:51.093000+00:00,1777636011093,S011,3,50,1777636011034,1777636011108,1777636011093,watch_phone_bridge,1777636010913,0.015548110008239746,-0.014813661575317383,-0.033799052238464355,-0.02575111947953701,-0.024377066642045975,-0.017395714297890663
2026-05-01T11:46:51.093000+00:00,1777636011093,S011,3,50,1777636011034,1777636011108,1777636011093,watch_phone_bridge,1777636010934,0.01436355710029602,-0.015105009078979492,-0.032842278480529785,-0.033778950572013855,-0.025019610300660133,-0.014966857619583607
2026-05-01T11:46:51.093000+00:00,1777636011093,S011,3,50,1777636011034,1777636011108,1777636011093,watch_phone_bridge,1777636010954,0.012847870588302612,-0.012013435363769531,-0.03066074848175049,-0.03176693618297577,-0.02242603525519371,-0.0033051942009478807
2026-05-01T11:46:51.093000+00:00,1777636011093,S011,3,50,1777636011034,1777636011108,1777636011093,watch_phone_bridge,1777636010974,0.012088865041732788,-0.011448383331298828,-0.029147177934646606,-0.023257868364453316,-0.03216354176402092,0.012447455897927284
2026-05-01T11:46:51.093000+00:00,1777636011093,S011,3,50,1777636011034,1777636011108,1777636011093,watch_phone_bridge,1777636010994,0.013415306806564331,-0.011313080787658691,-0.028414174914360046,-0.021649586036801338,-0.05166389048099518,0.023835400119423866
2026-05-01T11:46:51.093000+00:00,1777636011093,S011,3,50,1777636011034,1777636011108,1777636011093,watch_phone_bridge,1777636011014,0.015597373247146606,-0.012144982814788818,-0.029721423983573914,-0.04048958420753479,-0.07410190254449844,0.012821258045732975
2026-05-01T11:46:51.093000+00:00,1777636011093,S011,3,50,1777636011034,1777636011108,1777636011093,watch_phone_bridge,1777636011034,0.015336006879806519,-0.014352679252624512,-0.02960658073425293,-0.048878010362386703,-0.09715718775987625,-0.0027624955400824547
2026-05-01T11:46:51.830000+00:00,1777636011830,S011,4,50,1777636011236,1777636011782,1777636011830,watch_phone_bridge,1777636011054,0.016758233308792114,-0.010670363903045654,-0.025935888290405273,-0.05723687261343002,-0.1495101898908615,0.0031066855881363153
2026-05-01T11:46:51.830000+00:00,1777636011830,S011,4,50,1777636011236,1777636011782,1777636011830,watch_phone_bridge,1777636011074,0.018828928470611572,-0.013420343399047852,-0.029766947031021118,-0.08875458687543869,-0.21977049112319946,-0.006497525610029697
2026-05-01T11:46:51.830000+00:00,1777636011830,S011,4,50,1777636011236,1777636011782,1777636011830,watch_phone_bridge,1777636011095,0.02093040943145752,0.00040215253829956055,-0.020963966846466064,-0.06186651438474655,-0.33364254236221313,-0.01997903175652027
2026-05-01T11:46:51.830000+00:00,1777636011830,S011,4,50,1777636011236,1777636011782,1777636011830,watch_phone_bridge,1777636011115,0.04132995009422302,0.014728188514709473,-0.01638573408126831,-0.03050725907087326,-0.6112797856330872,-0.115779809653759
2026-05-01T11:46:51.830000+00:00,1777636011830,S011,4,50,1777636011236,1777636011782,1777636011830,watch_phone_bridge,1777636011135,0.1310819685459137,0.06205463409423828,-0.03160296380519867,-0.2448408603668213,-1.4211499691009521,-0.31402334570884705
2026-05-01T11:46:51.830000+00:00,1777636011830,S011,4,50,1777636011236,1777636011782,1777636011830,watch_phone_bridge,1777636011155,0.11845281720161438,0.0044899582862854,-0.0461917519569397,-0.5197706818580627,-1.7678073644638062,-0.4139760434627533
2026-05-01T11:46:51.830000+00:00,1777636011830,S011,4,50,1777636011236,1777636011782,1777636011830,watch_phone_bridge,1777636011175,0.3603067696094513,0.33534514904022217,-0.24517452716827393,0.9672409892082214,-1.1448066234588623,0.9276430606842041
2026-05-01T11:46:51.830000+00:00,1777636011830,S011,4,50,1777636011236,1777636011782,1777636011830,watch_phone_bridge,1777636011195,-0.01921778917312622,0.4507744312286377,0.021172672510147095,1.2319309711456299,-1.445322036743164,0.34163564443588257
2026-05-01T11:46:51.830000+00:00,1777636011830,S011,4,50,1777636011236,1777636011782,1777636011830,watch_phone_bridge,1777636011215,0.03845962882041931,0.19602328538894653,-0.17467817664146423,1.4092820882797241,-1.1009501218795776,0.5053916573524475
2026-05-01T11:46:51.830000+00:00,1777636011830,S011,4,50,1777636011236,1777636011782,1777636011830,watch_phone_bridge,1777636011235,0.2613520324230194,0.1819135546684265,-0.20139166712760925,1.7822978496551514,-1.3006045818328857,0.698203980922699
2026-05-01T11:46:51.992000+00:00,1777636011992,S011,5,50,1777636011436,1777636012030,1777636011992,watch_phone_bridge,1777636011255,0.20980021357536316,0.21551132202148438,-0.18172955513000488,2.768195390701294,-1.2762835025787354,0.8512384295463562
2026-05-01T11:46:51.992000+00:00,1777636011992,S011,5,50,1777636011436,1777636012030,1777636011992,watch_phone_bridge,1777636011275,0.18192997574806213,0.24034041166305542,-0.10815069079399109,4.028019428253174,-1.322717308998108,1.0191576480865479
2026-05-01T11:46:51.992000+00:00,1777636011992,S011,5,50,1777636011436,1777636012030,1777636011992,watch_phone_bridge,1777636011295,0.18488526344299316,0.28228574991226196,-0.03022944927215576,5.681168556213379,-1.4054280519485474,1.117174506187439
2026-05-01T11:46:51.992000+00:00,1777636011992,S011,5,50,1777636011436,1777636012030,1777636011992,watch_phone_bridge,1777636011315,0.14073446393013,0.32634836435317993,0.047731757164001465,7.779618740081787,-1.4868184328079224,1.1982898712158203
2026-05-01T11:46:51.992000+00:00,1777636011992,S011,5,50,1777636011436,1777636012030,1777636011992,watch_phone_bridge,1777636011337,0.08682382106781006,0.4055638313293457,0.1243482232093811,9.912922859191895,-1.4178533554077148,1.384102463722229
2026-05-01T11:46:51.992000+00:00,1777636011992,S011,5,50,1777636011436,1777636012030,1777636011992,watch_phone_bridge,1777636011356,0.03554275631904602,0.410064697265625,0.2837721109390259,10.914247512817383,-1.115368127822876,1.6777777671813965
2026-05-01T11:46:51.992000+00:00,1777636011992,S011,5,50,1777636011436,1777636012030,1777636011992,watch_phone_bridge,1777636011376,-0.008101969957351685,0.2458294779062271,0.5344874858856201,9.59183120727539,-0.8917280435562134,1.850066900253296
2026-05-01T11:46:51.992000+00:00,1777636011992,S011,5,50,1777636011436,1777636012030,1777636011992,watch_phone_bridge,1777636011396,-0.03514561057090759,-0.1357143521308899,0.5149341225624084,6.305346965789795,-0.855482816696167,2.0620439052581787
2026-05-01T11:46:51.992000+00:00,1777636011992,S011,5,50,1777636011436,1777636012030,1777636011992,watch_phone_bridge,1777636011416,-0.03514361381530762,-0.15278911590576172,0.4811273217201233,2.8274495601654053,-0.8736288547515869,2.163207769393921
2026-05-01T11:46:51.992000+00:00,1777636011992,S011,5,50,1777636011436,1777636012030,1777636011992,watch_phone_bridge,1777636011436,-0.05326250195503235,-0.17137667536735535,0.3056616187095642,1.2237558364868164,-1.0268385410308838,2.0728371143341064
2026-05-01T11:46:52.127000+00:00,1777636012127,S011,6,50,1777636011637,1777636012132,1777636012127,watch_phone_bridge,1777636011456,-0.08563879132270813,-0.015168413519859314,0.105410635471344,1.3266547918319702,-1.038648009300232,1.9032020568847656
2026-05-01T11:46:52.127000+00:00,1777636012127,S011,6,50,1777636011637,1777636012132,1777636012127,watch_phone_bridge,1777636011476,-0.07778295874595642,0.026952281594276428,0.07507777214050293,1.662949800491333,-1.0378371477127075,1.669453740119934
2026-05-01T11:46:52.127000+00:00,1777636012127,S011,6,50,1777636011637,1777636012132,1777636012127,watch_phone_bridge,1777636011501,-0.0754031091928482,-0.02122063934803009,0.12555885314941406,1.6107288599014282,-0.9954074621200562,1.4833807945251465
2026-05-01T11:46:52.127000+00:00,1777636012127,S011,6,50,1777636011637,1777636012132,1777636012127,watch_phone_bridge,1777636011516,-0.05607522279024124,0.054547637701034546,0.11660581827163696,1.5199267864227295,-0.9577101469039917,1.3590539693832397
2026-05-01T11:46:52.127000+00:00,1777636012127,S011,6,50,1777636011637,1777636012132,1777636012127,watch_phone_bridge,1777636011537,-0.05885499715805054,0.05923554301261902,0.05082905292510986,1.2457804679870605,-0.847463846206665,1.2876152992248535
2026-05-01T11:46:52.127000+00:00,1777636012127,S011,6,50,1777636011637,1777636012132,1777636012127,watch_phone_bridge,1777636011557,-0.047854337841272354,0.0007012784481048584,0.022588074207305908,0.9403054714202881,-0.768050491809845,1.162513017654419
2026-05-01T11:46:52.127000+00:00,1777636012127,S011,6,50,1777636011637,1777636012132,1777636012127,watch_phone_bridge,1777636011583,-0.027895450592041016,0.03489953279495239,0.03909289836883545,0.7948423027992249,-0.6840960383415222,1.0586875677108765
2026-05-01T11:46:52.127000+00:00,1777636012127,S011,6,50,1777636011637,1777636012132,1777636012127,watch_phone_bridge,1777636011602,-0.03551100194454193,0.04020404815673828,0.046579837799072266,0.771804690361023,-0.6179608702659607,0.9315741062164307
2026-05-01T11:46:52.127000+00:00,1777636012127,S011,6,50,1777636011637,1777636012132,1777636012127,watch_phone_bridge,1777636011617,-0.0401637963950634,0.061194151639938354,0.05878549814224243,0.7740821242332458,-0.5561856031417847,0.8636634945869446
2026-05-01T11:46:52.127000+00:00,1777636012127,S011,6,50,1777636011637,1777636012132,1777636012127,watch_phone_bridge,1777636011637,-0.03618437796831131,0.06719076633453369,0.055174052715301514,0.7695313692092896,-0.47115811705589294,0.7679305076599121
2026-05-01T11:46:52.286000+00:00,1777636012286,S011,7,50,1777636011838,1777636012311,1777636012286,watch_phone_bridge,1777636011657,-0.04976142570376396,0.02772119641304016,0.050501465797424316,0.5731719732284546,-0.3980083763599396,0.6449092030525208
2026-05-01T11:46:52.286000+00:00,1777636012286,S011,7,50,1777636011838,1777636012311,1777636012286,watch_phone_bridge,1777636011677,-0.055366262793540955,-0.00628739595413208,0.03546339273452759,0.36235079169273376,-0.3390504717826843,0.5423154830932617
2026-05-01T11:46:52.286000+00:00,1777636012286,S011,7,50,1777636011838,1777636012311,1777636012286,watch_phone_bridge,1777636011698,-0.05689108371734619,0.017635434865951538,0.06525570154190063,0.298602432012558,-0.3088122606277466,0.45354577898979187
2026-05-01T11:46:52.286000+00:00,1777636012286,S011,7,50,1777636011838,1777636012311,1777636012286,watch_phone_bridge,1777636011717,-0.05269687622785568,-0.0010177791118621826,0.07818853855133057,0.2544688284397125,-0.2841801643371582,0.3541107177734375
2026-05-01T11:46:52.286000+00:00,1777636012286,S011,7,50,1777636011838,1777636012311,1777636012286,watch_phone_bridge,1777636011737,-0.05781875178217888,-0.03133895993232727,0.061912357807159424,0.19218388199806213,-0.26000744104385376,0.2441626489162445
2026-05-01T11:46:52.286000+00:00,1777636012286,S011,7,50,1777636011838,1777636012311,1777636012286,watch_phone_bridge,1777636011757,-0.05287018418312073,-0.028128623962402344,0.048446595668792725,0.16411654651165009,-0.2193712443113327,0.16035963594913483
2026-05-01T11:46:52.286000+00:00,1777636012286,S011,7,50,1777636011838,1777636012311,1777636012286,watch_phone_bridge,1777636011778,-0.049625955522060394,-0.012043178081512451,0.019488930702209473,0.1373099684715271,-0.17342567443847656,0.08534233272075653
2026-05-01T11:46:52.286000+00:00,1777636012286,S011,7,50,1777636011838,1777636012311,1777636012286,watch_phone_bridge,1777636011798,-0.04667794704437256,-0.02376699447631836,0.019587159156799316,0.021497352048754692,-0.13947793841362,0.022399690002202988
2026-05-01T11:46:52.286000+00:00,1777636012286,S011,7,50,1777636011838,1777636012311,1777636012286,watch_phone_bridge,1777636011818,-0.02380240708589554,-0.012428611516952515,0.03918778896331787,-0.05055367201566696,-0.11731027811765671,-0.03958858177065849
2026-05-01T11:46:52.286000+00:00,1777636012286,S011,7,50,1777636011838,1777636012311,1777636012286,watch_phone_bridge,1777636011838,-0.009754732251167297,0.005085080862045288,0.05802673101425171,-0.0617474690079689,-0.07070640474557877,-0.1107596904039383
2026-05-01T11:46:52.445000+00:00,1777636012445,S011,8,50,1777636012040,1777636012489,1777636012445,watch_phone_bridge,1777636011858,0.016473688185214996,0.016876548528671265,0.024593114852905273,-0.10447202622890472,-0.012060783803462982,-0.15084438025951385
2026-05-01T11:46:52.445000+00:00,1777636012445,S011,8,50,1777636012040,1777636012489,1777636012445,watch_phone_bridge,1777636011878,0.0032579973340034485,0.0070337653160095215,0.007675528526306152,-0.19428713619709015,0.029063178226351738,-0.14839452505111694
2026-05-01T11:46:52.445000+00:00,1777636012445,S011,8,50,1777636012040,1777636012489,1777636012445,watch_phone_bridge,1777636011898,-0.012205228209495544,0.0018033385276794434,-0.008015334606170654,-0.22917668521404266,0.05840364471077919,-0.11549058556556702
2026-05-01T11:46:52.445000+00:00,1777636012445,S011,8,50,1777636012040,1777636012489,1777636012445,watch_phone_bridge,1777636011918,-0.01140005886554718,-0.01973089575767517,0.003154456615447998,-0.14029927551746368,0.04362484812736511,-0.09058603644371033
2026-05-01T11:46:52.445000+00:00,1777636012445,S011,8,50,1777636012040,1777636012489,1777636012445,watch_phone_bridge,1777636011939,-0.011495709419250488,-0.028396576642990112,0.011882185935974121,-0.03045159950852394,0.040351178497076035,-0.06472413241863251
2026-05-01T11:46:52.445000+00:00,1777636012445,S011,8,50,1777636012040,1777636012489,1777636012445,watch_phone_bridge,1777636011959,-0.014333873987197876,-0.04945790767669678,0.013449013233184814,-1.5929341316223145e-05,0.021954059600830078,-0.08192948251962662
2026-05-01T11:46:52.445000+00:00,1777636012445,S011,8,50,1777636012040,1777636012489,1777636012445,watch_phone_bridge,1777636011979,-0.007511720061302185,-0.058192312717437744,-0.010204493999481201,-0.02376360259950161,0.009974895045161247,-0.08082842826843262
2026-05-01T11:46:52.445000+00:00,1777636012445,S011,8,50,1777636012040,1777636012489,1777636012445,watch_phone_bridge,1777636011999,-0.011059530079364777,-0.034736812114715576,-0.03268313407897949,-0.04035696014761925,0.00955742597579956,-0.0754709467291832
2026-05-01T11:46:52.445000+00:00,1777636012445,S011,8,50,1777636012040,1777636012489,1777636012445,watch_phone_bridge,1777636012019,-0.008336976170539856,-0.022275686264038086,-0.03149211406707764,-0.046777307987213135,-0.01014559157192707,-0.06357285380363464
2026-05-01T11:46:52.445000+00:00,1777636012445,S011,8,50,1777636012040,1777636012489,1777636012445,watch_phone_bridge,1777636012039,0.004278451204299927,0.0014509856700897217,-0.004385411739349365,-0.035705216228961945,-0.02331865206360817,-0.035677459090948105
2026-05-01T11:46:52.695000+00:00,1777636012695,S011,9,50,1777636012240,1777636012726,1777636012695,watch_phone_bridge,1777636012059,0.003135398030281067,-0.011046141386032104,-0.008483588695526123,0.00523795560002327,-0.04151146858930588,-0.021668167784810066
2026-05-01T11:46:52.695000+00:00,1777636012695,S011,9,50,1777636012240,1777636012726,1777636012695,watch_phone_bridge,1777636012079,-0.0014291629195213318,-0.017596900463104248,-0.011413156986236572,0.022404160350561142,-0.044583648443222046,-0.003604267258197069
2026-05-01T11:46:52.695000+00:00,1777636012695,S011,9,50,1777636012240,1777636012726,1777636012695,watch_phone_bridge,1777636012101,-0.0010839253664016724,-0.016580581665039062,-0.013440966606140137,0.05005363002419472,-0.05156383290886879,0.002250425983220339
2026-05-01T11:46:52.695000+00:00,1777636012695,S011,9,50,1777636012240,1777636012726,1777636012695,watch_phone_bridge,1777636012119,0.002821199595928192,-0.009369462728500366,-0.011156618595123291,0.04271076247096062,-0.051666516810655594,0.0011121908901259303
2026-05-01T11:46:52.695000+00:00,1777636012695,S011,9,50,1777636012240,1777636012726,1777636012695,watch_phone_bridge,1777636012146,-0.0028527677059173584,-0.0001767277717590332,-0.00865095853805542,0.037459272891283035,-0.050454702228307724,0.02166992984712124
2026-05-01T11:46:52.695000+00:00,1777636012695,S011,9,50,1777636012240,1777636012726,1777636012695,watch_phone_bridge,1777636012162,-0.0016642063856124878,0.0006995797157287598,-0.004491329193115234,0.04838009551167488,-0.047343939542770386,0.028932902961969376
2026-05-01T11:46:52.695000+00:00,1777636012695,S011,9,50,1777636012240,1777636012726,1777636012695,watch_phone_bridge,1777636012179,0.002852402627468109,-0.006935209035873413,0.008527815341949463,0.06890961527824402,-0.06543106585741043,0.05920904874801636
2026-05-01T11:46:52.695000+00:00,1777636012695,S011,9,50,1777636012240,1777636012726,1777636012695,watch_phone_bridge,1777636012200,-0.002115890383720398,-0.029405862092971802,0.01248997449874878,0.060984037816524506,-0.09033968299627304,0.0691806748509407
2026-05-01T11:46:52.695000+00:00,1777636012695,S011,9,50,1777636012240,1777636012726,1777636012695,watch_phone_bridge,1777636012220,0.007432438433170319,-0.016106992959976196,0.01815652847290039,0.004202250391244888,-0.10131453722715378,0.07645754516124725
2026-05-01T11:46:52.695000+00:00,1777636012695,S011,9,50,1777636012240,1777636012726,1777636012695,watch_phone_bridge,1777636012240,-0.0009287148714065552,-0.032343119382858276,0.0034769177436828613,-0.0421103835105896,-0.09505009651184082,0.054680343717336655
2026-05-01T11:46:53.392000+00:00,1777636013392,S011,10,50,1777636012441,1777636013432,1777636013392,watch_phone_bridge,1777636012260,0.009685955941677094,-0.022772163152694702,0.014370620250701904,-0.021325213834643364,-0.10347838699817657,0.04622155800461769
2026-05-01T11:46:53.392000+00:00,1777636013392,S011,10,50,1777636012441,1777636013432,1777636013392,watch_phone_bridge,1777636012280,0.004960551857948303,-0.013309448957443237,0.02539050579071045,0.028614118695259094,-0.0989937037229538,0.04213280603289604
2026-05-01T11:46:53.392000+00:00,1777636013392,S011,10,50,1777636012441,1777636013432,1777636013392,watch_phone_bridge,1777636012301,0.012878172099590302,-0.01652434468269348,0.017057299613952637,0.020732758566737175,-0.09011594206094742,0.02349046804010868
2026-05-01T11:46:53.392000+00:00,1777636013392,S011,10,50,1777636012441,1777636013432,1777636013392,watch_phone_bridge,1777636012320,0.005617655813694,-0.02467268705368042,0.013005614280700684,-0.07117932289838791,-0.08164925873279572,0.008863640949130058
2026-05-01T11:46:53.392000+00:00,1777636013392,S011,10,50,1777636012441,1777636013432,1777636013392,watch_phone_bridge,1777636012341,0.0029685720801353455,-0.01740097999572754,0.006905674934387207,-0.11530070751905441,-0.07178167253732681,0.012397868558764458
2026-05-01T11:46:53.392000+00:00,1777636013392,S011,10,50,1777636012441,1777636013432,1777636013392,watch_phone_bridge,1777636012361,-0.004272229969501495,0.00018513202667236328,0.007694661617279053,-0.051289767026901245,-0.06832660734653473,0.01589939184486866
2026-05-01T11:46:53.392000+00:00,1777636013392,S011,10,50,1777636012441,1777636013432,1777636013392,watch_phone_bridge,1777636012381,-0.0054238662123680115,0.0002608299255371094,0.00831294059753418,0.010611148551106453,-0.06708777695894241,0.021285900846123695
2026-05-01T11:46:53.392000+00:00,1777636013392,S011,10,50,1777636012441,1777636013432,1777636013392,watch_phone_bridge,1777636012401,-0.006553247570991516,-0.017748326063156128,0.005282163619995117,-0.012336778454482555,-0.06141231581568718,-0.000890186580363661
2026-05-01T11:46:53.392000+00:00,1777636013392,S011,10,50,1777636012441,1777636013432,1777636013392,watch_phone_bridge,1777636012421,-0.008268840610980988,-0.020787477493286133,-0.005085110664367676,-0.07328002154827118,-0.053424280136823654,-0.008182774297893047
2026-05-01T11:46:53.392000+00:00,1777636013392,S011,10,50,1777636012441,1777636013432,1777636013392,watch_phone_bridge,1777636012441,-0.005033552646636963,-0.007389873266220093,-0.011962056159973145,-0.07491201162338257,-0.04082973673939705,-0.011077683418989182
2026-05-01T11:46:53.431000+00:00,1777636013431,S011,11,50,1777636012642,1777636013448,1777636013431,watch_phone_bridge,1777636012461,-0.010849729180335999,0.011750608682632446,-0.011307835578918457,-0.0057952553033828735,-0.03133183717727661,-0.011126632802188396
2026-05-01T11:46:53.431000+00:00,1777636013431,S011,11,50,1777636012642,1777636013448,1777636013431,watch_phone_bridge,1777636012481,-0.007745310664176941,-0.005238354206085205,-0.00875025987625122,0.001019774004817009,-0.030413692817091942,-0.009342793375253677
2026-05-01T11:46:53.431000+00:00,1777636013431,S011,11,50,1777636012642,1777636013448,1777636013431,watch_phone_bridge,1777636012502,-0.005168348550796509,-0.011158525943756104,-0.006341278553009033,-0.05340538173913956,-0.023082353174686432,-0.017270278185606003
2026-05-01T11:46:53.431000+00:00,1777636013431,S011,11,50,1777636012642,1777636013448,1777636013431,watch_phone_bridge,1777636012521,-0.006910465657711029,-0.024231016635894775,-0.013629913330078125,-0.11335207521915436,-0.014024484902620316,-0.03831297904253006
2026-05-01T11:46:53.431000+00:00,1777636013431,S011,11,50,1777636012642,1777636013448,1777636013431,watch_phone_bridge,1777636012542,-0.0015183612704277039,-0.009478867053985596,-0.0163460373878479,-0.0763208195567131,-0.017115196213126183,-0.025878947228193283
2026-05-01T11:46:53.431000+00:00,1777636013431,S011,11,50,1777636012642,1777636013448,1777636013431,watch_phone_bridge,1777636012561,-0.012410715222358704,0.017989635467529297,-0.007921695709228516,0.06507918238639832,-0.015431014820933342,-0.0122286481782794
2026-05-01T11:46:53.431000+00:00,1777636013431,S011,11,50,1777636012642,1777636013448,1777636013431,watch_phone_bridge,1777636012582,-0.01458854228258133,-0.004419177770614624,-0.0049402713775634766,0.09642006456851959,-0.016880763694643974,-0.002782628871500492
2026-05-01T11:46:53.431000+00:00,1777636013431,S011,11,50,1777636012642,1777636013448,1777636013431,watch_phone_bridge,1777636012602,-0.009591415524482727,-0.02511581778526306,-0.0033960342407226562,0.0022312458604574203,-0.025129562243819237,-0.0009890964720398188
2026-05-01T11:46:53.431000+00:00,1777636013431,S011,11,50,1777636012642,1777636013448,1777636013431,watch_phone_bridge,1777636012622,-0.0040048956871032715,-0.0172920823097229,-0.0016172528266906738,-0.03722774609923363,-0.02936824969947338,-0.005908913444727659
2026-05-01T11:46:53.431000+00:00,1777636013431,S011,11,50,1777636012642,1777636013448,1777636013431,watch_phone_bridge,1777636012642,-0.002866707742214203,-0.0003185868263244629,-0.0027559995651245117,0.0020251180976629257,-0.03485649451613426,-0.016716819256544113
2026-05-01T11:46:53.683000+00:00,1777636013683,S011,12,50,1777636012843,1777636013685,1777636013683,watch_phone_bridge,1777636012662,-0.0014243721961975098,-0.0021025240421295166,-0.004611372947692871,0.015504974871873856,-0.02938179485499859,-0.0034929472021758556
2026-05-01T11:46:53.683000+00:00,1777636013683,S011,12,50,1777636012843,1777636013685,1777636013683,watch_phone_bridge,1777636012682,-0.005423508584499359,-0.00641179084777832,0.0016425848007202148,-0.010155914351344109,-0.03162607550621033,0.004834757186472416
2026-05-01T11:46:53.683000+00:00,1777636013683,S011,12,50,1777636012843,1777636013685,1777636013683,watch_phone_bridge,1777636012702,-0.00017605721950531006,-0.01428365707397461,0.0059923529624938965,-0.0577537938952446,-0.04182248190045357,0.00497515918686986
2026-05-01T11:46:53.683000+00:00,1777636013683,S011,12,50,1777636012843,1777636013685,1777636013683,watch_phone_bridge,1777636012722,-0.002031557261943817,0.013981819152832031,0.00664973258972168,-0.000580253079533577,-0.034674711525440216,0.005562332924455404
2026-05-01T11:46:53.683000+00:00,1777636013683,S011,12,50,1777636012843,1777636013685,1777636013683,watch_phone_bridge,1777636012742,-0.009107813239097595,0.005235522985458374,3.314018249511719e-05,0.025550415739417076,-0.024429038166999817,0.01218540221452713
2026-05-01T11:46:53.683000+00:00,1777636013683,S011,12,50,1777636012843,1777636013685,1777636013683,watch_phone_bridge,1777636012762,0.0037884563207626343,0.002531766891479492,0.006575822830200195,-0.005621882155537605,-0.03055533394217491,0.03151611611247063
2026-05-01T11:46:53.683000+00:00,1777636013683,S011,12,50,1777636012843,1777636013685,1777636013683,watch_phone_bridge,1777636012782,-0.0028959736227989197,0.0014844238758087158,0.00276106595993042,0.006328785791993141,-0.03495088219642639,0.0271927397698164
2026-05-01T11:46:53.683000+00:00,1777636013683,S011,12,50,1777636012843,1777636013685,1777636013683,watch_phone_bridge,1777636012803,-0.0008897930383682251,-0.004488050937652588,6.365776062011719e-05,-0.017548050731420517,-0.038079336285591125,0.03643827512860298
2026-05-01T11:46:53.683000+00:00,1777636013683,S011,12,50,1777636012843,1777636013685,1777636013683,watch_phone_bridge,1777636012823,-0.0007791593670845032,-0.011981457471847534,-0.0010060667991638184,-0.049852196127176285,-0.0346832349896431,0.02705116756260395
2026-05-01T11:46:53.683000+00:00,1777636013683,S011,12,50,1777636012843,1777636013685,1777636013683,watch_phone_bridge,1777636012843,-0.007087729871273041,-0.007008880376815796,-0.005388021469116211,-0.03858409449458122,-0.03581751137971878,0.026829484850168228
2026-05-01T11:46:54.828000+00:00,1777636014828,S011,13,50,1777636013044,1777636014865,1777636014828,watch_phone_bridge,1777636012863,-0.0036694034934043884,0.01630622148513794,-0.0006917715072631836,0.056235622614622116,-0.03362588584423065,0.03592311590909958
2026-05-01T11:46:54.828000+00:00,1777636014828,S011,13,50,1777636013044,1777636014865,1777636014828,watch_phone_bridge,1777636012883,-0.008606508374214172,-0.009132027626037598,-0.0018197894096374512,0.026457754895091057,-0.03209540247917175,0.02079646661877632
2026-05-01T11:46:54.828000+00:00,1777636014828,S011,13,50,1777636013044,1777636014865,1777636014828,watch_phone_bridge,1777636012903,-0.0013367906212806702,-0.025246113538742065,-0.00027257204055786133,-0.10620415210723877,-0.014291980303823948,0.002149758394807577
2026-05-01T11:46:54.828000+00:00,1777636014828,S011,13,50,1777636013044,1777636014865,1777636014828,watch_phone_bridge,1777636012923,-0.019382931292057037,-0.0010975897312164307,0.0012511610984802246,-0.08459020406007767,0.005434814840555191,-0.03192645311355591
2026-05-01T11:46:54.828000+00:00,1777636014828,S011,13,50,1777636013044,1777636014865,1777636014828,watch_phone_bridge,1777636012943,-0.023002594709396362,-0.0011564195156097412,-0.0034488439559936523,-0.0046378448605537415,0.02443700097501278,-0.04768144711852074
2026-05-01T11:46:54.828000+00:00,1777636014828,S011,13,50,1777636013044,1777636014865,1777636014828,watch_phone_bridge,1777636012963,-0.014922857284545898,5.620718002319336e-05,0.00570988655090332,0.04152937978506088,0.0261310376226902,-0.060074735432863235
2026-05-01T11:46:54.828000+00:00,1777636014828,S011,13,50,1777636013044,1777636014865,1777636014828,watch_phone_bridge,1777636012983,-0.012746818363666534,-0.01602470874786377,0.007867813110351562,-0.06129392981529236,0.022298483178019524,-0.07394766807556152
2026-05-01T11:46:54.828000+00:00,1777636014828,S011,13,50,1777636013044,1777636014865,1777636014828,watch_phone_bridge,1777636013004,-0.0015175193548202515,-0.02976846694946289,0.007689058780670166,-0.2454666942358017,0.009711052291095257,-0.09195037186145782
2026-05-01T11:46:54.828000+00:00,1777636014828,S011,13,50,1777636013044,1777636014865,1777636014828,watch_phone_bridge,1777636013024,0.00225009024143219,-0.037046611309051514,0.033679187297821045,-0.40111488103866577,-0.006837944965809584,-0.11405973136425018
2026-05-01T11:46:54.828000+00:00,1777636014828,S011,13,50,1777636013044,1777636014865,1777636014828,watch_phone_bridge,1777636013044,-0.00790230929851532,-0.01512095332145691,0.022360265254974365,-0.2979309558868408,0.012245811522006989,-0.1184956431388855
2026-05-01T11:46:54.868000+00:00,1777636014868,S011,14,50,1777636013245,1777636014875,1777636014868,watch_phone_bridge,1777636013064,-0.00555969774723053,0.054491132497787476,0.005353450775146484,-0.014774901792407036,0.02868504822254181,-0.10254660993814468
2026-05-01T11:46:54.868000+00:00,1777636014868,S011,14,50,1777636013245,1777636014875,1777636014868,watch_phone_bridge,1777636013085,-0.00016099214553833008,0.015282213687896729,-0.007357418537139893,-0.0648931935429573,0.042141202837228775,-0.1094622015953064
2026-05-01T11:46:54.868000+00:00,1777636014868,S011,14,50,1777636013245,1777636014875,1777636014868,watch_phone_bridge,1777636013104,0.005867511034011841,-0.048448920249938965,-0.0028905868530273438,-0.4852462708950043,0.07617784291505814,-0.18251244723796844
2026-05-01T11:46:54.868000+00:00,1777636014868,S011,14,50,1777636013245,1777636014875,1777636014868,watch_phone_bridge,1777636013124,-0.004594936966896057,-0.11244276165962219,0.03586995601654053,-1.060615062713623,0.07511996477842331,-0.32644379138946533
2026-05-01T11:46:54.868000+00:00,1777636014868,S011,14,50,1777636013245,1777636014875,1777636014868,watch_phone_bridge,1777636013144,-0.012144900858402252,-0.14241716265678406,0.07119107246398926,-1.782702088356018,0.12802034616470337,-0.5046796202659607
2026-05-01T11:46:54.868000+00:00,1777636014868,S011,14,50,1777636013245,1777636014875,1777636014868,watch_phone_bridge,1777636013164,-0.050524018704891205,-0.0833844244480133,-0.03905975818634033,-1.8325161933898926,0.48357248306274414,-0.5414957404136658
2026-05-01T11:46:54.868000+00:00,1777636014868,S011,14,50,1777636013245,1777636014875,1777636014868,watch_phone_bridge,1777636013186,-0.0455605611205101,0.26173436641693115,0.0007385015487670898,-0.41267138719558716,0.5892229676246643,-0.6099858283996582
2026-05-01T11:46:54.868000+00:00,1777636014868,S011,14,50,1777636013245,1777636014875,1777636014868,watch_phone_bridge,1777636013205,-0.08089297264814377,0.24339759349822998,-0.05423539876937866,0.6945266127586365,0.7029858827590942,-0.5688931941986084
2026-05-01T11:46:54.868000+00:00,1777636014868,S011,14,50,1777636013245,1777636014875,1777636014868,watch_phone_bridge,1777636013225,-0.018973570317029953,-0.00780913233757019,-0.0025146007537841797,0.3345617651939392,0.7261293530464172,-0.5677445530891418
2026-05-01T11:46:54.868000+00:00,1777636014868,S011,14,50,1777636013245,1777636014875,1777636014868,watch_phone_bridge,1777636013245,0.026049556210637093,-0.13702183961868286,0.027443528175354004,-0.6379735469818115,0.6785054206848145,-0.5826780796051025
2026-05-01T11:46:54.898000+00:00,1777636014898,S011,15,50,1777636013446,1777636014909,1777636014898,watch_phone_bridge,1777636013265,0.02092750556766987,-0.0688188374042511,0.03648936748504639,-1.1666815280914307,0.6558523178100586,-0.6325236558914185
2026-05-01T11:46:54.898000+00:00,1777636014898,S011,15,50,1777636013446,1777636014909,1777636014898,watch_phone_bridge,1777636013286,0.015072420239448547,0.02357792854309082,0.03223526477813721,-1.2222938537597656,0.6631821393966675,-0.662360668182373
2026-05-01T11:46:54.898000+00:00,1777636014898,S011,15,50,1777636013446,1777636014909,1777636014898,watch_phone_bridge,1777636013305,0.0014215540140867233,-0.020620599389076233,0.07049822807312012,-1.2996121644973755,0.6163166165351868,-0.6831144094467163
2026-05-01T11:46:54.898000+00:00,1777636014898,S011,15,50,1777636013446,1777636014909,1777636014898,watch_phone_bridge,1777636013325,-0.021835125982761383,-0.04875214397907257,0.06752240657806396,-1.5096940994262695,0.592111349105835,-0.6437544226646423
2026-05-01T11:46:54.898000+00:00,1777636014898,S011,15,50,1777636013446,1777636014909,1777636014898,watch_phone_bridge,1777636013345,-0.025843199342489243,-0.0090273916721344,0.057086944580078125,-1.498482346534729,0.6208746433258057,-0.6146138310432434
2026-05-01T11:46:54.898000+00:00,1777636014898,S011,15,50,1777636013446,1777636014909,1777636014898,watch_phone_bridge,1777636013365,-0.024504072964191437,0.036859795451164246,0.02924346923828125,-1.333267331123352,0.6279013752937317,-0.6465811133384705
2026-05-01T11:46:54.898000+00:00,1777636014898,S011,15,50,1777636013446,1777636014909,1777636014898,watch_phone_bridge,1777636013386,-0.03314485400915146,-0.001028895378112793,0.022963285446166992,-1.737840175628662,0.6297939419746399,-0.6642591953277588
2026-05-01T11:46:54.898000+00:00,1777636014898,S011,15,50,1777636013446,1777636014909,1777636014898,watch_phone_bridge,1777636013405,-0.0021392926573753357,-0.14665773510932922,0.07312041521072388,-2.7697293758392334,0.6122545003890991,-0.6547297835350037
2026-05-01T11:46:54.898000+00:00,1777636014898,S011,15,50,1777636013446,1777636014909,1777636014898,watch_phone_bridge,1777636013425,0.014408409595489502,-0.13614608347415924,0.06858468055725098,-3.459710121154785,0.7417682409286499,-0.5708642601966858
2026-05-01T11:46:54.898000+00:00,1777636014898,S011,15,50,1777636013446,1777636014909,1777636014898,watch_phone_bridge,1777636013445,0.01367710530757904,0.09821262210607529,0.04782825708389282,-2.574917793273926,0.7171586751937866,-0.5468696355819702
2026-05-01T11:46:54.985000+00:00,1777636014985,S011,16,50,1777636013647,1777636015022,1777636014985,watch_phone_bridge,1777636013466,0.007021024823188782,0.24505195021629333,-0.06367772817611694,-1.0925935506820679,0.761089026927948,-0.48692193627357483
2026-05-01T11:46:54.985000+00:00,1777636014985,S011,16,50,1777636013647,1777636015022,1777636014985,watch_phone_bridge,1777636013487,0.007986456155776978,0.10458727180957794,-0.04635506868362427,-0.5584824085235596,0.8133231401443481,-0.47334912419319153
2026-05-01T11:46:54.985000+00:00,1777636014985,S011,16,50,1777636013647,1777636015022,1777636014985,watch_phone_bridge,1777636013506,0.018940970301628113,-0.047154128551483154,0.02021712064743042,-0.8188266158103943,0.8314214944839478,-0.4480811059474945
2026-05-01T11:46:54.985000+00:00,1777636014985,S011,16,50,1777636013647,1777636015022,1777636014985,watch_phone_bridge,1777636013526,0.008278191089630127,-0.03904975950717926,0.008036375045776367,-0.9602359533309937,0.8314728140830994,-0.4393399655818939
2026-05-01T11:46:54.985000+00:00,1777636014985,S011,16,50,1777636013647,1777636015022,1777636014985,watch_phone_bridge,1777636013546,-0.0038357526063919067,0.019400745630264282,-0.02762538194656372,-0.7718188762664795,0.75730961561203,-0.4068816304206848
2026-05-01T11:46:54.985000+00:00,1777636014985,S011,16,50,1777636013647,1777636015022,1777636014985,watch_phone_bridge,1777636013566,-0.003155723214149475,0.0021540671586990356,-0.04491525888442993,-0.6960999369621277,0.7030882239341736,-0.3763386607170105
2026-05-01T11:46:54.985000+00:00,1777636014985,S011,16,50,1777636013647,1777636015022,1777636014985,watch_phone_bridge,1777636013587,0.004805862903594971,-0.0502953976392746,-0.02592569589614868,-0.8079831004142761,0.6469407677650452,-0.36451420187950134
2026-05-01T11:46:54.985000+00:00,1777636014985,S011,16,50,1777636013647,1777636015022,1777636014985,watch_phone_bridge,1777636013607,0.013385578989982605,-0.06559717655181885,-0.018105149269104004,-0.9042424559593201,0.6123802065849304,-0.37590327858924866
2026-05-01T11:46:54.985000+00:00,1777636014985,S011,16,50,1777636013647,1777636015022,1777636014985,watch_phone_bridge,1777636013626,0.013781815767288208,-0.03966706991195679,-0.029059112071990967,-0.8905215859413147,0.6349659562110901,-0.4158881902694702
2026-05-01T11:46:54.985000+00:00,1777636014985,S011,16,50,1777636013647,1777636015022,1777636014985,watch_phone_bridge,1777636013647,0.012830406427383423,0.0046433210372924805,-0.014533936977386475,-0.5577180981636047,0.6772408485412598,-0.426649808883667
2026-05-01T11:46:55.820000+00:00,1777636015820,S011,17,50,1777636013848,1777636015698,1777636015820,watch_phone_bridge,1777636013667,0.02707648277282715,0.07022085785865784,0.010344088077545166,0.03841668367385864,0.5907809734344482,-0.43300002813339233
2026-05-01T11:46:55.820000+00:00,1777636015820,S011,17,50,1777636013848,1777636015698,1777636015820,watch_phone_bridge,1777636013688,0.02544531226158142,0.031559139490127563,-0.008402645587921143,0.37008437514305115,0.5236487984657288,-0.41968876123428345
2026-05-01T11:46:55.820000+00:00,1777636015820,S011,17,50,1777636013848,1777636015698,1777636015820,watch_phone_bridge,1777636013707,0.008526414632797241,-0.07957875728607178,0.009975194931030273,0.045750491321086884,0.513019323348999,-0.43739011883735657
2026-05-01T11:46:55.820000+00:00,1777636015820,S011,17,50,1777636013848,1777636015698,1777636015820,watch_phone_bridge,1777636013727,0.009411245584487915,-0.16280218958854675,0.04865986108779907,-0.5284427404403687,0.5062177181243896,-0.45129090547561646
2026-05-01T11:46:55.820000+00:00,1777636015820,S011,17,50,1777636013848,1777636015698,1777636015820,watch_phone_bridge,1777636013747,0.006711423397064209,-0.09322479367256165,0.0411798357963562,-0.6664208173751831,0.5353386402130127,-0.4483678936958313
2026-05-01T11:46:55.820000+00:00,1777636015820,S011,17,50,1777636013848,1777636015698,1777636015820,watch_phone_bridge,1777636013767,0.004033714532852173,0.04336175322532654,-0.004384160041809082,-0.06354217231273651,0.4228818416595459,-0.4377267062664032
2026-05-01T11:46:55.820000+00:00,1777636015820,S011,17,50,1777636013848,1777636015698,1777636015820,watch_phone_bridge,1777636013787,0.0022711455821990967,0.07810643315315247,-0.04713636636734009,0.6074228882789612,0.3089888095855713,-0.41791456937789917
2026-05-01T11:46:55.820000+00:00,1777636015820,S011,17,50,1777636013848,1777636015698,1777636015820,watch_phone_bridge,1777636013807,-0.01166146993637085,-0.036800503730773926,-0.06420046091079712,0.7420006990432739,0.25143614411354065,-0.4182104766368866
2026-05-01T11:46:55.820000+00:00,1777636015820,S011,17,50,1777636013848,1777636015698,1777636015820,watch_phone_bridge,1777636013827,-0.02314189076423645,-0.10278117656707764,-0.055553555488586426,0.2886267900466919,0.22659900784492493,-0.45386090874671936
2026-05-01T11:46:55.820000+00:00,1777636015820,S011,17,50,1777636013848,1777636015698,1777636015820,watch_phone_bridge,1777636013848,-0.01795893907546997,-0.11716204881668091,-0.04403960704803467,-0.43463075160980225,0.18653692305088043,-0.47371697425842285
2026-05-01T11:46:55.977000+00:00,1777636015977,S011,18,50,1777636014049,1777636015715,1777636015977,watch_phone_bridge,1777636013868,-0.006466925144195557,-0.059172868728637695,-0.05782371759414673,-0.7394641637802124,0.14389069378376007,-0.4235415756702423
2026-05-01T11:46:55.977000+00:00,1777636015977,S011,18,50,1777636014049,1777636015715,1777636015977,watch_phone_bridge,1777636013888,-0.023443609476089478,-0.0004051327705383301,-0.07110142707824707,-0.4762205481529236,0.11726371943950653,-0.3997238874435425
2026-05-01T11:46:55.977000+00:00,1777636015977,S011,18,50,1777636014049,1777636015715,1777636015977,watch_phone_bridge,1777636013908,-0.023467719554901123,0.03208550810813904,-0.05369681119918823,-0.027351945638656616,0.04407964274287224,-0.4085221290588379
2026-05-01T11:46:55.977000+00:00,1777636015977,S011,18,50,1777636014049,1777636015715,1777636015977,watch_phone_bridge,1777636013928,-0.017265677452087402,0.03477618098258972,-0.0755690336227417,0.18132856488227844,0.03010614775121212,-0.3474237024784088
2026-05-01T11:46:55.977000+00:00,1777636015977,S011,18,50,1777636014049,1777636015715,1777636015977,watch_phone_bridge,1777636013948,-0.018230676651000977,0.07489210367202759,-0.09510880708694458,0.0872686430811882,0.013359012082219124,-0.21241366863250732
2026-05-01T11:46:55.977000+00:00,1777636015977,S011,18,50,1777636014049,1777636015715,1777636015977,watch_phone_bridge,1777636013968,-0.0269162654876709,0.08514082431793213,-0.08872812986373901,0.1318581998348236,0.047899071127176285,-0.0719105675816536
2026-05-01T11:46:55.977000+00:00,1777636015977,S011,18,50,1777636014049,1777636015715,1777636015977,watch_phone_bridge,1777636013988,-0.02636277675628662,0.06072765588760376,-0.05621987581253052,0.5034733414649963,0.069675013422966,0.005963937845081091
2026-05-01T11:46:55.977000+00:00,1777636015977,S011,18,50,1777636014049,1777636015715,1777636015977,watch_phone_bridge,1777636014009,-0.01915082335472107,0.07236826419830322,-0.03263568878173828,0.8021934628486633,0.06819848716259003,0.0420161597430706
2026-05-01T11:46:55.977000+00:00,1777636015977,S011,18,50,1777636014049,1777636015715,1777636015977,watch_phone_bridge,1777636014028,-0.0038262903690338135,0.022722899913787842,-0.02027219533920288,0.6510782241821289,0.08272366970777512,0.07962696999311447
2026-05-01T11:46:55.977000+00:00,1777636015977,S011,18,50,1777636014049,1777636015715,1777636015977,watch_phone_bridge,1777636014049,0.016508013010025024,-0.06005144119262695,0.005649268627166748,0.23160423338413239,0.06459339708089828,0.07822008430957794
2026-05-01T11:46:56.004000+00:00,1777636016004,S011,19,50,1777636014250,1777636015827,1777636016004,watch_phone_bridge,1777636014069,0.029031425714492798,-0.06275132298469543,0.013623952865600586,-0.05240456759929657,0.06320399045944214,0.06085280701518059
2026-05-01T11:46:56.004000+00:00,1777636016004,S011,19,50,1777636014250,1777636015827,1777636016004,watch_phone_bridge,1777636014089,0.030704140663146973,-0.03266501426696777,0.012028038501739502,-0.015142151154577732,0.07901988923549652,0.01721148006618023
2026-05-01T11:46:56.004000+00:00,1777636016004,S011,19,50,1777636014250,1777636015827,1777636016004,watch_phone_bridge,1777636014109,0.012040138244628906,0.040853679180145264,-0.020484864711761475,0.3283957540988922,0.06938416510820389,-0.017353635281324387
2026-05-01T11:46:56.004000+00:00,1777636016004,S011,19,50,1777636014250,1777636015827,1777636016004,watch_phone_bridge,1777636014129,-0.003179877996444702,0.019831091165542603,-0.02660912275314331,0.3570505976676941,0.09951657056808472,-0.010507127270102501
2026-05-01T11:46:56.004000+00:00,1777636016004,S011,19,50,1777636014250,1777636015827,1777636016004,watch_phone_bridge,1777636014149,-0.00029781460762023926,-0.02716711163520813,0.00044357776641845703,0.14422646164894104,0.07564190030097961,0.005908863618969917
2026-05-01T11:46:56.004000+00:00,1777636016004,S011,19,50,1777636014250,1777636015827,1777636016004,watch_phone_bridge,1777636014169,0.0010356009006500244,-0.029953569173812866,0.007027924060821533,-0.07551601529121399,0.04845380410552025,0.02545556053519249
2026-05-01T11:46:56.004000+00:00,1777636016004,S011,19,50,1777636014250,1777636015827,1777636016004,watch_phone_bridge,1777636014189,-0.0038770735263824463,-0.017963409423828125,0.002343475818634033,-0.09438690543174744,0.043115463107824326,0.03357447311282158
2026-05-01T11:46:56.004000+00:00,1777636016004,S011,19,50,1777636014250,1777636015827,1777636016004,watch_phone_bridge,1777636014209,-0.0063547492027282715,0.009300380945205688,-0.005940616130828857,-0.0018202215433120728,0.013222011737525463,0.019669150933623314
2026-05-01T11:46:56.004000+00:00,1777636016004,S011,19,50,1777636014250,1777636015827,1777636016004,watch_phone_bridge,1777636014229,-0.0038047730922698975,-0.023876577615737915,0.00011050701141357422,-0.11666903644800186,-0.00374715612269938,-0.0015432470245286822
2026-05-01T11:46:56.004000+00:00,1777636016004,S011,19,50,1777636014250,1777636015827,1777636016004,watch_phone_bridge,1777636014250,-0.0064795613288879395,-0.043466925621032715,-0.004725396633148193,-0.20579704642295837,2.650497481226921e-05,-0.04063253849744797
2026-05-01T11:46:56.049000+00:00,1777636016049,S011,20,50,1777636014451,1777636015841,1777636016049,watch_phone_bridge,1777636014271,-0.014475405216217041,-0.05261316895484924,-0.017350733280181885,-0.2402500957250595,0.03485989198088646,-0.0756501778960228
2026-05-01T11:46:56.049000+00:00,1777636016049,S011,20,50,1777636014451,1777636015841,1777636016049,watch_phone_bridge,1777636014290,-0.018858373165130615,-0.01545831561088562,-0.023540973663330078,-0.1537596881389618,0.051806800067424774,-0.11475848406553268
2026-05-01T11:46:56.049000+00:00,1777636016049,S011,20,50,1777636014451,1777636015841,1777636016049,watch_phone_bridge,1777636014310,-0.02418583631515503,0.0014938712120056152,-0.05473935604095459,-0.2060742825269699,0.10001275688409805,-0.1303369104862213
2026-05-01T11:46:56.049000+00:00,1777636016049,S011,20,50,1777636014451,1777636015841,1777636016049,watch_phone_bridge,1777636014330,-0.03463929891586304,-0.10396134853363037,-0.04611968994140625,-0.9169363975524902,0.12289220094680786,-0.14633020758628845
2026-05-01T11:46:56.049000+00:00,1777636016049,S011,20,50,1777636014451,1777636015841,1777636016049,watch_phone_bridge,1777636014350,-0.05217975378036499,-0.24808546900749207,-0.06489908695220947,-2.3187830448150635,0.1550896316766739,-0.18105867505073547
2026-05-01T11:46:56.049000+00:00,1777636016049,S011,20,50,1777636014451,1777636015841,1777636016049,watch_phone_bridge,1777636014371,-0.09833663702011108,-0.34345293045043945,-0.08448731899261475,-4.016757488250732,0.39089614152908325,-0.2902977764606476
2026-05-01T11:46:56.049000+00:00,1777636016049,S011,20,50,1777636014451,1777636015841,1777636016049,watch_phone_bridge,1777636014390,-0.16119831800460815,-0.3173200786113739,-0.0759115219116211,-5.20318603515625,0.7206194996833801,-0.409371018409729
2026-05-01T11:46:56.049000+00:00,1777636016049,S011,20,50,1777636014451,1777636015841,1777636016049,watch_phone_bridge,1777636014410,-0.16241690516471863,-0.09761512279510498,-0.12550294399261475,-5.460846424102783,1.0832897424697876,-0.2996161878108978
2026-05-01T11:46:56.049000+00:00,1777636016049,S011,20,50,1777636014451,1777636015841,1777636016049,watch_phone_bridge,1777636014430,-0.20103782415390015,0.010078072547912598,-0.13056063652038574,-5.413195610046387,1.359328031539917,-0.1457310914993286
2026-05-01T11:46:56.049000+00:00,1777636016049,S011,20,50,1777636014451,1777636015841,1777636016049,watch_phone_bridge,1777636014450,-0.20082232356071472,0.01215428113937378,-0.054013848304748535,-5.934481143951416,1.5759401321411133,0.10901303589344025
2026-05-01T11:46:56.102000+00:00,1777636016102,S011,21,50,1777636014652,1777636015865,1777636016102,watch_phone_bridge,1777636014472,-0.19325706362724304,-0.023653805255889893,0.031036734580993652,-6.56678581237793,1.6208794116973877,0.17772285640239716
2026-05-01T11:46:56.102000+00:00,1777636016102,S011,21,50,1777636014652,1777636015865,1777636016102,watch_phone_bridge,1777636014491,-0.20135292410850525,-0.02885305881500244,0.06139481067657471,-6.537757873535156,1.615493893623352,0.14356467127799988
2026-05-01T11:46:56.102000+00:00,1777636016102,S011,21,50,1777636014652,1777636015865,1777636016102,watch_phone_bridge,1777636014511,-0.19596189260482788,0.0347709059715271,0.014932036399841309,-5.371603012084961,1.3716564178466797,-0.005087168887257576
2026-05-01T11:46:56.102000+00:00,1777636016102,S011,21,50,1777636014652,1777636015865,1777636016102,watch_phone_bridge,1777636014533,-0.17603349685668945,0.06215113401412964,0.0028698593378067017,-3.739957571029663,1.1977074146270752,-0.1739429235458374
2026-05-01T11:46:56.102000+00:00,1777636016102,S011,21,50,1777636014652,1777636015865,1777636016102,watch_phone_bridge,1777636014550,-0.12732577323913574,0.08971303701400757,0.01011037826538086,-2.1865313053131104,0.9664933681488037,-0.2947341501712799
2026-05-01T11:46:56.102000+00:00,1777636016102,S011,21,50,1777636014652,1777636015865,1777636016102,watch_phone_bridge,1777636014573,-0.09912759065628052,0.04877769947052002,-0.03967171162366867,-0.9639052748680115,0.816861629486084,-0.510064959526062
2026-05-01T11:46:56.102000+00:00,1777636016102,S011,21,50,1777636014652,1777636015865,1777636016102,watch_phone_bridge,1777636014591,-0.08058962225914001,-0.05556613206863403,0.030649781227111816,-0.22225938737392426,0.6664941310882568,-0.6847356557846069
2026-05-01T11:46:56.102000+00:00,1777636016102,S011,21,50,1777636014652,1777636015865,1777636016102,watch_phone_bridge,1777636014611,0.005985260009765625,-0.06318825483322144,0.19934207201004028,0.30722975730895996,0.3678801655769348,-0.8401455283164978
2026-05-01T11:46:56.102000+00:00,1777636016102,S011,21,50,1777636014652,1777636015865,1777636016102,watch_phone_bridge,1777636014631,0.0774972140789032,-0.040444910526275635,0.24691683053970337,0.40850526094436646,0.08550918102264404,-0.8599516749382019
2026-05-01T11:46:56.102000+00:00,1777636016102,S011,21,50,1777636014652,1777636015865,1777636016102,watch_phone_bridge,1777636014651,0.08748641610145569,0.03358560800552368,0.1762322187423706,0.44136732816696167,0.005498882383108139,-0.8249574303627014
2026-05-01T11:46:57.389000+00:00,1777636017389,S011,22,50,1777636014852,1777636017424,1777636017389,watch_phone_bridge,1777636014673,0.1120983362197876,0.06874114274978638,0.08633803576231003,0.6269587874412537,-0.006868456955999136,-0.7521014213562012
2026-05-01T11:46:57.389000+00:00,1777636017389,S011,22,50,1777636014852,1777636017424,1777636017389,watch_phone_bridge,1777636014691,0.11610934138298035,0.0888134241104126,0.04018354415893555,0.8170261383056641,0.0496683232486248,-0.5564234852790833
2026-05-01T11:46:57.389000+00:00,1777636017389,S011,22,50,1777636014852,1777636017424,1777636017389,watch_phone_bridge,1777636014711,0.13437852263450623,0.10989046096801758,0.07598501443862915,1.0034303665161133,0.04504480957984924,-0.3874659538269043
2026-05-01T11:46:57.389000+00:00,1777636017389,S011,22,50,1777636014852,1777636017424,1777636017389,watch_phone_bridge,1777636014731,0.20206260681152344,0.12277543544769287,0.12548726797103882,1.2724509239196777,-0.06842651218175888,-0.27067431807518005
2026-05-01T11:46:57.389000+00:00,1777636017389,S011,22,50,1777636014852,1777636017424,1777636017389,watch_phone_bridge,1777636014751,0.259578138589859,0.11049485206604004,0.15625964105129242,1.3676269054412842,-0.2485521137714386,-0.16178825497627258
2026-05-01T11:46:57.389000+00:00,1777636017389,S011,22,50,1777636014852,1777636017424,1777636017389,watch_phone_bridge,1777636014772,0.2483573853969574,-0.00682908296585083,0.13826586306095123,1.0211875438690186,-0.40528392791748047,-0.05870075523853302
2026-05-01T11:46:57.389000+00:00,1777636017389,S011,22,50,1777636014852,1777636017424,1777636017389,watch_phone_bridge,1777636014792,0.18760758638381958,-0.0897442102432251,0.11580759286880493,0.4923167824745178,-0.49721020460128784,0.03310628980398178
2026-05-01T11:46:57.389000+00:00,1777636017389,S011,22,50,1777636014852,1777636017424,1777636017389,watch_phone_bridge,1777636014812,0.15283456444740295,-0.0658673644065857,0.06788475811481476,0.382088840007782,-0.5516265034675598,0.08508916944265366
2026-05-01T11:46:57.389000+00:00,1777636017389,S011,22,50,1777636014852,1777636017424,1777636017389,watch_phone_bridge,1777636014832,0.13399925827980042,-0.03152203559875488,0.028277575969696045,0.365984708070755,-0.5427579879760742,0.0895557701587677
2026-05-01T11:46:57.389000+00:00,1777636017389,S011,22,50,1777636014852,1777636017424,1777636017389,watch_phone_bridge,1777636014852,0.11719512939453125,-0.028992891311645508,0.032965242862701416,0.7081676125526428,-0.577948272228241,0.047228872776031494
2026-05-01T11:46:57.444000+00:00,1777636017444,S011,23,50,1777636015053,1777636017469,1777636017444,watch_phone_bridge,1777636014873,0.06744524836540222,-0.058785319328308105,-0.049704134464263916,1.274797797203064,-0.6001670956611633,-0.004561993293464184
2026-05-01T11:46:57.444000+00:00,1777636017444,S011,23,50,1777636015053,1777636017469,1777636017444,watch_phone_bridge,1777636014892,0.009722888469696045,-0.023411571979522705,-0.10787373781204224,1.5485429763793945,-0.555558443069458,-0.08920151740312576
2026-05-01T11:46:57.444000+00:00,1777636017444,S011,23,50,1777636015053,1777636017469,1777636017444,watch_phone_bridge,1777636014912,-0.06345516443252563,-0.09247833490371704,0.021209239959716797,1.0684394836425781,-0.4820801317691803,-0.195548415184021
2026-05-01T11:46:57.444000+00:00,1777636017444,S011,23,50,1777636015053,1777636017469,1777636017444,watch_phone_bridge,1777636014932,-0.05333802103996277,-0.22227144241333008,0.05884513258934021,0.16716480255126953,-0.521468997001648,-0.3003731369972229
2026-05-01T11:46:57.444000+00:00,1777636017444,S011,23,50,1777636015053,1777636017469,1777636017444,watch_phone_bridge,1777636014953,-0.022685229778289795,-0.20221954584121704,0.07909497618675232,-0.31991270184516907,-0.5146315097808838,-0.4208104908466339
2026-05-01T11:46:57.444000+00:00,1777636017444,S011,23,50,1777636015053,1777636017469,1777636017444,watch_phone_bridge,1777636014973,-0.040371328592300415,-0.04213136434555054,-0.045393288135528564,-0.017929682508111,-0.4232368469238281,-0.41266706585884094
2026-05-01T11:46:57.444000+00:00,1777636017444,S011,23,50,1777636015053,1777636017469,1777636017444,watch_phone_bridge,1777636014993,-0.07882702350616455,0.2194223403930664,-0.2505587041378021,0.8156530857086182,-0.1755761355161667,-0.27711623907089233
2026-05-01T11:46:57.444000+00:00,1777636017444,S011,23,50,1777636015053,1777636017469,1777636017444,watch_phone_bridge,1777636015013,-0.031004488468170166,0.3566434979438782,-0.184169739484787,1.1858398914337158,-0.025928054004907608,-0.01688806153833866
2026-05-01T11:46:57.444000+00:00,1777636017444,S011,23,50,1777636015053,1777636017469,1777636017444,watch_phone_bridge,1777636015033,0.033692508935928345,0.13158714771270752,0.03968217968940735,0.8135462403297424,-0.11829740554094315,0.05832301825284958
2026-05-01T11:46:57.444000+00:00,1777636017444,S011,23,50,1777636015053,1777636017469,1777636017444,watch_phone_bridge,1777636015053,0.05333641171455383,-0.07478392124176025,0.149372398853302,0.25426748394966125,-0.27265214920043945,0.0035151077900081873
2026-05-01T11:46:57.486000+00:00,1777636017486,S011,24,50,1777636015254,1777636017471,1777636017486,watch_phone_bridge,1777636015073,0.014540791511535645,-0.052014291286468506,0.10530507564544678,0.27131280303001404,-0.3135541081428528,-0.14555767178535461
2026-05-01T11:46:57.486000+00:00,1777636017486,S011,24,50,1777636015254,1777636017471,1777636017486,watch_phone_bridge,1777636015097,-0.009845256805419922,-0.026915788650512695,-0.1198059618473053,0.7481216788291931,-0.2668352723121643,-0.1721470057964325
2026-05-01T11:46:57.486000+00:00,1777636017486,S011,24,50,1777636015254,1777636017471,1777636017486,watch_phone_bridge,1777636015113,-0.03751063346862793,0.030010461807250977,-0.12049630284309387,0.6037259101867676,-0.15240199863910675,-0.058132704347372055
2026-05-01T11:46:57.486000+00:00,1777636017486,S011,24,50,1777636015254,1777636017471,1777636017486,watch_phone_bridge,1777636015135,0.01840163767337799,0.07652032375335693,-0.03836438059806824,0.3635742664337158,-0.10923588275909424,-0.030874982476234436
2026-05-01T11:46:57.486000+00:00,1777636017486,S011,24,50,1777636015254,1777636017471,1777636017486,watch_phone_bridge,1777636015153,0.025417640805244446,-0.041786015033721924,0.002016127109527588,0.056892625987529755,-0.10117540508508682,-0.034117382019758224
2026-05-01T11:46:57.486000+00:00,1777636017486,S011,24,50,1777636015254,1777636017471,1777636017486,watch_phone_bridge,1777636015173,-0.002903178334236145,-0.08649313449859619,0.0033369064331054688,-0.4042281210422516,-0.0627749040722847,-0.027017660439014435
2026-05-01T11:46:57.486000+00:00,1777636017486,S011,24,50,1777636015254,1777636017471,1777636017486,watch_phone_bridge,1777636015194,-0.008818447589874268,-0.0014946460723876953,-0.0354575514793396,-0.4910639524459839,-0.02005860023200512,-0.011186286807060242
2026-05-01T11:46:57.486000+00:00,1777636017486,S011,24,50,1777636015254,1777636017471,1777636017486,watch_phone_bridge,1777636015214,-0.048780277371406555,0.003951311111450195,-0.10406494140625,-0.2068503350019455,0.01989353448152542,-0.02112419158220291
2026-05-01T11:46:57.486000+00:00,1777636017486,S011,24,50,1777636015254,1777636017471,1777636017486,watch_phone_bridge,1777636015234,-0.044783592224121094,-0.019541263580322266,-0.009589433670043945,-0.07841140031814575,0.02641177363693714,-8.436734788119793e-05
2026-05-01T11:46:57.486000+00:00,1777636017486,S011,24,50,1777636015254,1777636017471,1777636017486,watch_phone_bridge,1777636015254,-0.020407259464263916,-0.06668472290039062,0.04824173450469971,-0.40114763379096985,0.0342879593372345,-0.025133581832051277
2026-05-01T11:46:57.526000+00:00,1777636017526,S011,25,50,1777636015455,1777636017483,1777636017526,watch_phone_bridge,1777636015274,-0.02122323215007782,-0.060426175594329834,-0.03692790865898132,-0.5756805539131165,0.1451624631881714,-0.020115653052926064
2026-05-01T11:46:57.526000+00:00,1777636017526,S011,25,50,1777636015455,1777636017483,1777636017526,watch_phone_bridge,1777636015294,0.024967238306999207,-0.02758091688156128,0.022274374961853027,-0.6257581114768982,0.1602499932050705,-0.04088719189167023
2026-05-01T11:46:57.526000+00:00,1777636017526,S011,25,50,1777636015455,1777636017483,1777636017526,watch_phone_bridge,1777636015314,0.03239424526691437,-0.04150146245956421,-0.005600959062576294,-0.2377943992614746,0.14982272684574127,-0.09415808320045471
2026-05-01T11:46:57.526000+00:00,1777636017526,S011,25,50,1777636015455,1777636017483,1777636017526,watch_phone_bridge,1777636015334,0.004234105348587036,-0.04567784070968628,-0.0282629132270813,-0.2918541729450226,0.18463462591171265,-0.08840272575616837
2026-05-01T11:46:57.526000+00:00,1777636017526,S011,25,50,1777636015455,1777636017483,1777636017526,watch_phone_bridge,1777636015355,-0.010705500841140747,-0.04811447858810425,0.003468245267868042,-0.6502672433853149,0.20942042768001556,-0.0856732502579689
2026-05-01T11:46:57.526000+00:00,1777636017526,S011,25,50,1777636015455,1777636017483,1777636017526,watch_phone_bridge,1777636015375,-0.02606379985809326,0.03493452072143555,-0.06292366981506348,-0.656485915184021,0.27355584502220154,-0.05907263979315758
2026-05-01T11:46:57.526000+00:00,1777636017526,S011,25,50,1777636015455,1777636017483,1777636017526,watch_phone_bridge,1777636015395,-0.010975778102874756,0.06823223829269409,-0.01313161849975586,-0.5643296241760254,0.2878039479255676,-0.04583555832505226
2026-05-01T11:46:57.526000+00:00,1777636017526,S011,25,50,1777636015455,1777636017483,1777636017526,watch_phone_bridge,1777636015415,0.020022496581077576,-0.011548936367034912,0.01633065938949585,-0.5857673287391663,0.21895219385623932,-0.03417101874947548
2026-05-01T11:46:57.526000+00:00,1777636017526,S011,25,50,1777636015455,1777636017483,1777636017526,watch_phone_bridge,1777636015435,0.01557391881942749,-0.021725952625274658,0.07683038711547852,-0.6650091409683228,0.1630469262599945,-0.011833755299448967
2026-05-01T11:46:57.526000+00:00,1777636017526,S011,25,50,1777636015455,1777636017483,1777636017526,watch_phone_bridge,1777636015455,0.019577592611312866,0.018013358116149902,0.036376357078552246,-0.5315477252006531,0.08986687660217285,-0.004140095319598913
2026-05-01T11:46:57.612000+00:00,1777636017612,S011,26,50,1777636015656,1777636017545,1777636017612,watch_phone_bridge,1777636015475,0.00121288001537323,0.06154066324234009,-0.044101566076278687,-0.24507202208042145,0.08784256875514984,0.005098463501781225
2026-05-01T11:46:57.612000+00:00,1777636017612,S011,26,50,1777636015656,1777636017545,1777636017612,watch_phone_bridge,1777636015495,-0.019925758242607117,0.04148763418197632,-0.042864859104156494,-0.10138435661792755,0.07101713865995407,0.017270972952246666
2026-05-01T11:46:57.612000+00:00,1777636017612,S011,26,50,1777636015656,1777636017545,1777636017612,watch_phone_bridge,1777636015515,-0.00902286171913147,0.008465230464935303,0.0007259249687194824,-0.1071932464838028,0.044262029230594635,-0.00476700346916914
2026-05-01T11:46:57.612000+00:00,1777636017612,S011,26,50,1777636015656,1777636017545,1777636017612,watch_phone_bridge,1777636015535,-0.008850842714309692,-0.06608068943023682,0.0009700655937194824,-0.2193077951669693,0.08507847040891647,-0.07126165926456451
2026-05-01T11:46:57.612000+00:00,1777636017612,S011,26,50,1777636015656,1777636017545,1777636017612,watch_phone_bridge,1777636015555,-0.001605898141860962,-0.11906635761260986,-0.019853264093399048,-0.5441223382949829,0.11015404015779495,-0.08492660522460938
2026-05-01T11:46:57.612000+00:00,1777636017612,S011,26,50,1777636015656,1777636017545,1777636017612,watch_phone_bridge,1777636015576,0.01125529408454895,0.02018451690673828,-0.03366389870643616,-0.3681159019470215,0.15814119577407837,-0.05251966416835785
2026-05-01T11:46:57.612000+00:00,1777636017612,S011,26,50,1777636015656,1777636017545,1777636017612,watch_phone_bridge,1777636015596,-0.012786641716957092,0.08764487504959106,-0.039478451013565063,0.0034379251301288605,0.22262811660766602,-0.04402114450931549
2026-05-01T11:46:57.612000+00:00,1777636017612,S011,26,50,1777636015656,1777636017545,1777636017612,watch_phone_bridge,1777636015616,-0.005474358797073364,0.02255481481552124,0.0005072355270385742,-0.14327721297740936,0.2538757920265198,-0.02787051349878311
2026-05-01T11:46:57.612000+00:00,1777636017612,S011,26,50,1777636015656,1777636017545,1777636017612,watch_phone_bridge,1777636015636,-0.005831688642501831,-0.04926949739456177,-0.025795012712478638,-0.34921520948410034,0.27361220121383667,0.0022243803832679987
2026-05-01T11:46:57.612000+00:00,1777636017612,S011,26,50,1777636015656,1777636017545,1777636017612,watch_phone_bridge,1777636015656,-0.015459030866622925,-0.05063503980636597,-0.030594348907470703,-0.4938485622406006,0.3014545142650604,-0.06992464512586594
2026-05-01T11:46:57.639000+00:00,1777636017639,S011,27,50,1777636015857,1777636017656,1777636017639,watch_phone_bridge,1777636015676,0.0076216161251068115,-0.015120506286621094,0.009841889142990112,-0.5825523138046265,0.2802838683128357,-0.025113606825470924
2026-05-01T11:46:57.639000+00:00,1777636017639,S011,27,50,1777636015857,1777636017656,1777636017639,watch_phone_bridge,1777636015696,0.009292706847190857,0.01652425527572632,0.0037882328033447266,-0.4684925973415375,0.2386331558227539,-0.030386611819267273
2026-05-01T11:46:57.639000+00:00,1777636017639,S011,27,50,1777636015857,1777636017656,1777636017639,watch_phone_bridge,1777636015716,-0.010223954916000366,0.024349629878997803,-0.007605522871017456,-0.4960283637046814,0.26092585921287537,-0.02900448627769947
2026-05-01T11:46:57.639000+00:00,1777636017639,S011,27,50,1777636015857,1777636017656,1777636017639,watch_phone_bridge,1777636015736,-0.01664574444293976,-0.022059857845306396,-0.0017385780811309814,-0.8601897954940796,0.2647300958633423,-0.01702212542295456
2026-05-01T11:46:57.639000+00:00,1777636017639,S011,27,50,1777636015857,1777636017656,1777636017639,watch_phone_bridge,1777636015758,-0.015083998441696167,-0.05774945020675659,-0.0027189254760742188,-1.139306902885437,0.23935718834400177,-0.029287472367286682
2026-05-01T11:46:57.639000+00:00,1777636017639,S011,27,50,1777636015857,1777636017656,1777636017639,watch_phone_bridge,1777636015776,0.013028755784034729,-0.029703259468078613,0.03945112228393555,-1.019521713256836,0.14750871062278748,0.0031060995534062386
2026-05-01T11:46:57.639000+00:00,1777636017639,S011,27,50,1777636015857,1777636017656,1777636017639,watch_phone_bridge,1777636015797,0.026604726910591125,0.0829552412033081,0.04081392288208008,-0.6265360713005066,0.08511944860219955,-0.0517965629696846
2026-05-01T11:46:57.639000+00:00,1777636017639,S011,27,50,1777636015857,1777636017656,1777636017639,watch_phone_bridge,1777636015816,0.03480657935142517,-0.03610217571258545,0.009925603866577148,-0.4843061864376068,0.030874622985720634,-0.03921206295490265
2026-05-01T11:46:57.639000+00:00,1777636017639,S011,27,50,1777636015857,1777636017656,1777636017639,watch_phone_bridge,1777636015837,-0.0077970027923583984,-0.019059836864471436,-0.047230422496795654,-0.2486124336719513,0.08459244668483734,-0.043634239584207535
2026-05-01T11:46:57.639000+00:00,1777636017639,S011,27,50,1777636015857,1777636017656,1777636017639,watch_phone_bridge,1777636015857,0.012159526348114014,0.003283679485321045,-0.08302729576826096,0.003100769594311714,0.10054105520248413,0.0024456356186419725
2026-05-01T11:46:57.744000+00:00,1777636017744,S011,28,50,1777636016058,1777636017771,1777636017744,watch_phone_bridge,1777636015877,0.023230373859405518,0.008911073207855225,-0.02875678986310959,0.013229034841060638,0.09421045333147049,-0.00015307690773624927
2026-05-01T11:46:57.744000+00:00,1777636017744,S011,28,50,1777636016058,1777636017771,1777636017744,watch_phone_bridge,1777636015897,0.0004054754972457886,0.009602785110473633,0.03754586726427078,-0.10910486429929733,0.10435416549444199,0.04802696779370308
2026-05-01T11:46:57.744000+00:00,1777636017744,S011,28,50,1777636016058,1777636017771,1777636017744,watch_phone_bridge,1777636015917,0.03295712172985077,0.03137683868408203,0.028498351573944092,-0.12445052713155746,0.08464289456605911,0.039868637919425964
2026-05-01T11:46:57.744000+00:00,1777636017744,S011,28,50,1777636016058,1777636017771,1777636017744,watch_phone_bridge,1777636015937,0.014648661017417908,-0.02582395076751709,-0.010545313358306885,-0.14447377622127533,0.11490678787231445,0.04245137423276901
2026-05-01T11:46:57.744000+00:00,1777636017744,S011,28,50,1777636016058,1777636017771,1777636017744,watch_phone_bridge,1777636015957,0.012991845607757568,0.02450096607208252,-0.017367474734783173,0.005822518840432167,0.09361401945352554,0.029407158493995667
2026-05-01T11:46:57.744000+00:00,1777636017744,S011,28,50,1777636016058,1777636017771,1777636017744,watch_phone_bridge,1777636015978,-0.005517825484275818,0.011312544345855713,-0.0234098881483078,0.3312900960445404,0.024522071704268456,0.021872064098715782
2026-05-01T11:46:57.744000+00:00,1777636017744,S011,28,50,1777636016058,1777636017771,1777636017744,watch_phone_bridge,1777636015998,0.00985892117023468,0.01753711700439453,0.04871135950088501,0.5175246596336365,-0.08685425668954849,0.0038160451222211123
2026-05-01T11:46:57.744000+00:00,1777636017744,S011,28,50,1777636016058,1777636017771,1777636017744,watch_phone_bridge,1777636016018,-0.012102484703063965,-0.04772746562957764,0.016395553946495056,0.5203316807746887,-0.14243899285793304,-0.04237568750977516
2026-05-01T11:46:57.744000+00:00,1777636017744,S011,28,50,1777636016058,1777636017771,1777636017744,watch_phone_bridge,1777636016038,-0.01056303083896637,-0.014943599700927734,0.05018739402294159,0.3249477744102478,-0.16747640073299408,-0.051567211747169495
2026-05-01T11:46:57.744000+00:00,1777636017744,S011,28,50,1777636016058,1777636017771,1777636017744,watch_phone_bridge,1777636016058,0.024460822343826294,0.019898951053619385,0.049785315990448,0.23185324668884277,-0.20514069497585297,-0.009257571771740913
2026-05-01T11:46:57.875000+00:00,1777636017875,S011,29,50,1777636016259,1777636017782,1777636017875,watch_phone_bridge,1777636016078,0.0029448121786117554,0.048536062240600586,0.02253711223602295,0.502011239528656,-0.24888722598552704,0.002643455285578966
2026-05-01T11:46:57.875000+00:00,1777636017875,S011,29,50,1777636016259,1777636017782,1777636017875,watch_phone_bridge,1777636016098,0.028457656502723694,0.07943010330200195,0.019603848457336426,1.0852587223052979,-0.30201083421707153,0.0027270785067230463
2026-05-01T11:46:57.875000+00:00,1777636017875,S011,29,50,1777636016259,1777636017782,1777636017875,watch_phone_bridge,1777636016118,0.019412755966186523,0.049306392669677734,0.06107008457183838,1.3706291913986206,-0.3302013874053955,-0.010515382513403893
2026-05-01T11:46:57.875000+00:00,1777636017875,S011,29,50,1777636016259,1777636017782,1777636017875,watch_phone_bridge,1777636016139,0.014157682657241821,-0.0650789737701416,0.03648656606674194,1.1034371852874756,-0.32224100828170776,-0.0024817984085530043
2026-05-01T11:46:57.875000+00:00,1777636017875,S011,29,50,1777636016259,1777636017782,1777636017875,watch_phone_bridge,1777636016158,0.000695452094078064,-0.05656808614730835,0.044418588280677795,0.2960929572582245,-0.2804397642612457,0.02595362439751625
2026-05-01T11:46:57.875000+00:00,1777636017875,S011,29,50,1777636016259,1777636017782,1777636017875,watch_phone_bridge,1777636016178,-0.027811214327812195,-0.08798915147781372,-0.0027639567852020264,-0.2223118543624878,-0.18248552083969116,-0.01875765435397625
2026-05-01T11:46:57.875000+00:00,1777636017875,S011,29,50,1777636016259,1777636017782,1777636017875,watch_phone_bridge,1777636016198,-0.0593569278717041,-0.06244403123855591,-0.07155841588973999,-0.14654012024402618,-0.08986818790435791,-0.04083797708153725
2026-05-01T11:46:57.875000+00:00,1777636017875,S011,29,50,1777636016259,1777636017782,1777636017875,watch_phone_bridge,1777636016219,-0.023448646068572998,0.0010666251182556152,-0.08229421079158783,0.2633959949016571,-0.0525471493601799,-0.024196946993470192
2026-05-01T11:46:57.875000+00:00,1777636017875,S011,29,50,1777636016259,1777636017782,1777636017875,watch_phone_bridge,1777636016239,-0.00883503258228302,0.08143240213394165,-0.1100759506225586,0.6700641512870789,0.019772017374634743,0.08152079582214355
2026-05-01T11:46:57.875000+00:00,1777636017875,S011,29,50,1777636016259,1777636017782,1777636017875,watch_phone_bridge,1777636016259,-0.012342914938926697,0.043856799602508545,0.009974807500839233,0.3650616407394409,0.04847609996795654,0.06372284144163132
2026-05-01T11:46:58.785000+00:00,1777636018785,S011,30,50,1777636016460,1777636018740,1777636018785,watch_phone_bridge,1777636016279,-0.005727708339691162,-0.04401940107345581,0.007075011730194092,-0.14583970606327057,0.07918200641870499,0.05609069764614105
2026-05-01T11:46:58.785000+00:00,1777636018785,S011,30,50,1777636016460,1777636018740,1777636018785,watch_phone_bridge,1777636016299,-0.012328892946243286,-0.014638960361480713,-0.001799941062927246,-0.25798729062080383,0.08034474402666092,0.03777625039219856
2026-05-01T11:46:58.785000+00:00,1777636018785,S011,30,50,1777636016460,1777636018740,1777636018785,watch_phone_bridge,1777636016319,0.0034189075231552124,0.0407598614692688,-0.046816274523735046,-0.0900036096572876,0.11347652226686478,0.07441601902246475
2026-05-01T11:46:58.785000+00:00,1777636018785,S011,30,50,1777636016460,1777636018740,1777636018785,watch_phone_bridge,1777636016339,-0.005011603236198425,0.015079379081726074,-0.04694157838821411,-0.01235994603484869,0.10672304779291153,0.07038053125143051
2026-05-01T11:46:58.785000+00:00,1777636018785,S011,30,50,1777636016460,1777636018740,1777636018785,watch_phone_bridge,1777636016360,0.0035850852727890015,-0.014360904693603516,0.028345853090286255,-0.10160114616155624,0.052597153931856155,0.04580674692988396
2026-05-01T11:46:58.785000+00:00,1777636018785,S011,30,50,1777636016460,1777636018740,1777636018785,watch_phone_bridge,1777636016379,0.003831416368484497,-0.054359495639801025,0.043731123208999634,-0.13873040676116943,-0.0025336677208542824,0.004323963075876236
2026-05-01T11:46:58.785000+00:00,1777636018785,S011,30,50,1777636016460,1777636018740,1777636018785,watch_phone_bridge,1777636016399,0.005835637450218201,-0.026282846927642822,0.040617287158966064,-0.10833707451820374,-0.031317759305238724,-0.00516456039622426
2026-05-01T11:46:58.785000+00:00,1777636018785,S011,30,50,1777636016460,1777636018740,1777636018785,watch_phone_bridge,1777636016419,0.011308297514915466,-0.02925729751586914,0.012251973152160645,-0.04992915689945221,-0.0542740561068058,-0.0512273944914341
2026-05-01T11:46:58.785000+00:00,1777636018785,S011,30,50,1777636016460,1777636018740,1777636018785,watch_phone_bridge,1777636016439,0.011813819408416748,-0.048947930335998535,-0.014514178037643433,-0.017127538099884987,-0.051400959491729736,-0.08135338872671127
2026-05-01T11:46:58.785000+00:00,1777636018785,S011,30,50,1777636016460,1777636018740,1777636018785,watch_phone_bridge,1777636016460,-0.001280367374420166,-0.03434622287750244,-0.021697521209716797,-0.065652996301651,-0.03982842341065407,-0.11416534334421158
2026-05-01T11:46:58.814000+00:00,1777636018814,S011,31,50,1777636016663,1777636018752,1777636018814,watch_phone_bridge,1777636016480,-0.0047111958265304565,-0.046948909759521484,-0.026324063539505005,-0.1549956500530243,-0.03926524147391319,-0.11948111653327942
2026-05-01T11:46:58.814000+00:00,1777636018814,S011,31,50,1777636016663,1777636018752,1777636018814,watch_phone_bridge,1777636016500,-0.017107903957366943,-0.018091678619384766,-0.044525712728500366,-0.11960837244987488,-0.011167902499437332,-0.10014805942773819
2026-05-01T11:46:58.814000+00:00,1777636018814,S011,31,50,1777636016663,1777636018752,1777636018814,watch_phone_bridge,1777636016520,-0.015364110469818115,-0.009878337383270264,-0.028641879558563232,-0.03966160863637924,0.0036094076931476593,-0.12160041183233261
2026-05-01T11:46:58.814000+00:00,1777636018814,S011,31,50,1777636016663,1777636018752,1777636018814,watch_phone_bridge,1777636016540,-0.0015420317649841309,0.010517716407775879,-0.021737009286880493,0.01192169077694416,0.006820228882133961,-0.10016697645187378
2026-05-01T11:46:58.814000+00:00,1777636018814,S011,31,50,1777636016663,1777636018752,1777636018814,watch_phone_bridge,1777636016560,0.000522911548614502,0.05519360303878784,0.0109032541513443,0.14882947504520416,0.015931321308016777,-0.09667221456766129
2026-05-01T11:46:58.814000+00:00,1777636018814,S011,31,50,1777636016663,1777636018752,1777636018814,watch_phone_bridge,1777636016580,0.015741556882858276,0.05041062831878662,0.0020746588706970215,0.27317512035369873,0.007303935009986162,-0.09860289841890335
2026-05-01T11:46:58.814000+00:00,1777636018814,S011,31,50,1777636016663,1777636018752,1777636018814,watch_phone_bridge,1777636016600,-5.3748488426208496e-05,-0.027874648571014404,-0.030705809593200684,0.06396917998790741,0.052377212792634964,-0.09658672660589218
2026-05-01T11:46:58.814000+00:00,1777636018814,S011,31,50,1777636016663,1777636018752,1777636018814,watch_phone_bridge,1777636016621,0.013516739010810852,-0.0005336999893188477,-0.02410954236984253,0.03893200308084488,0.043500784784555435,-0.09703920036554337
2026-05-01T11:46:58.814000+00:00,1777636018814,S011,31,50,1777636016663,1777636018752,1777636018814,watch_phone_bridge,1777636016641,0.001551702618598938,0.04656118154525757,0.014349609613418579,0.2957827150821686,0.036142393946647644,-0.07300539314746857
2026-05-01T11:46:58.814000+00:00,1777636018814,S011,31,50,1777636016663,1777636018752,1777636018814,watch_phone_bridge,1777636016663,-0.0026795119047164917,0.05282706022262573,-0.021097660064697266,0.477024644613266,0.03821916505694389,-0.05656175687909126
2026-05-01T11:47:00.833000+00:00,1777636020833,S011,32,50,1777636016862,1777636020813,1777636020833,watch_phone_bridge,1777636016681,-0.0020589828491210938,0.025096535682678223,0.014551997184753418,0.3844340145587921,0.010349830612540245,-0.00907147116959095
2026-05-01T11:47:00.833000+00:00,1777636020833,S011,32,50,1777636016862,1777636020813,1777636020833,watch_phone_bridge,1777636016701,0.02148185670375824,0.056118667125701904,0.0553421676158905,0.27578315138816833,-0.009738697670400143,0.014235503040254116
2026-05-01T11:47:00.833000+00:00,1777636020833,S011,32,50,1777636016862,1777636020813,1777636020833,watch_phone_bridge,1777636016721,0.00846688449382782,-0.024889767169952393,0.06687584519386292,0.18344710767269135,-0.015183797106146812,0.025024499744176865
2026-05-01T11:47:00.833000+00:00,1777636020833,S011,32,50,1777636016862,1777636020813,1777636020833,watch_phone_bridge,1777636016741,0.01570732891559601,-0.008455336093902588,0.0030604302883148193,0.26209157705307007,0.009333302266895771,0.02150966040790081
2026-05-01T11:47:00.833000+00:00,1777636020833,S011,32,50,1777636016862,1777636020813,1777636020833,watch_phone_bridge,1777636016761,0.0027362555265426636,-0.006669580936431885,-0.028052031993865967,0.2710147500038147,0.03688248619437218,0.05259529873728752
2026-05-01T11:47:00.833000+00:00,1777636020833,S011,32,50,1777636016862,1777636020813,1777636020833,watch_phone_bridge,1777636016781,0.014526158571243286,0.008907437324523926,0.039801716804504395,0.16151250898838043,0.02578638680279255,0.046865034848451614
2026-05-01T11:47:00.833000+00:00,1777636020833,S011,32,50,1777636016862,1777636020813,1777636020833,watch_phone_bridge,1777636016802,0.006874680519104004,-0.03013157844543457,0.019464969635009766,0.0004679672420024872,0.030452167615294456,0.04896701127290726
2026-05-01T11:47:00.833000+00:00,1777636020833,S011,32,50,1777636016862,1777636020813,1777636020833,watch_phone_bridge,1777636016822,-0.0024913549423217773,-0.0424574613571167,0.0327032208442688,-0.18766573071479797,0.023521823808550835,0.035997793078422546
2026-05-01T11:47:00.833000+00:00,1777636020833,S011,32,50,1777636016862,1777636020813,1777636020833,watch_phone_bridge,1777636016842,-0.004826962947845459,-0.01610589027404785,0.010076373815536499,-0.09585484117269516,0.019290821626782417,0.010300896130502224
2026-05-01T11:47:00.833000+00:00,1777636020833,S011,32,50,1777636016862,1777636020813,1777636020833,watch_phone_bridge,1777636016862,-0.011615172028541565,-0.004993259906768799,0.010542184114456177,-0.04741859808564186,0.011846336536109447,0.007373602129518986
2026-05-01T11:47:00.859000+00:00,1777636020859,S011,33,50,1777636017062,1777636020820,1777636020859,watch_phone_bridge,1777636016882,0.004445284605026245,0.024726033210754395,0.011038899421691895,-0.17325855791568756,-0.027993258088827133,0.022738177329301834
2026-05-01T11:47:00.859000+00:00,1777636020859,S011,33,50,1777636017062,1777636020820,1777636020859,watch_phone_bridge,1777636016902,0.004612371325492859,-0.0038844943046569824,0.03626009821891785,-0.2390010803937912,-0.06057349964976311,0.014309432357549667
2026-05-01T11:47:00.859000+00:00,1777636020859,S011,33,50,1777636017062,1777636020820,1777636020859,watch_phone_bridge,1777636016922,-0.0036382973194122314,-0.010127425193786621,0.018719404935836792,-0.2707582116127014,-0.09471841156482697,0.009338109754025936
2026-05-01T11:47:00.859000+00:00,1777636020859,S011,33,50,1777636017062,1777636020820,1777636020859,watch_phone_bridge,1777636016942,0.015271216630935669,0.010881245136260986,0.026836901903152466,-0.09892093390226364,-0.14896667003631592,-0.015981094911694527
2026-05-01T11:47:00.859000+00:00,1777636020859,S011,33,50,1777636017062,1777636020820,1777636020859,watch_phone_bridge,1777636016962,0.012454316020011902,-0.0033978819847106934,0.015612274408340454,0.09025511145591736,-0.17731602489948273,-0.070716992020607
2026-05-01T11:47:00.859000+00:00,1777636020859,S011,33,50,1777636017062,1777636020820,1777636020859,watch_phone_bridge,1777636016982,-0.027047067880630493,-0.014865219593048096,-0.005938023328781128,-0.00995404738932848,-0.15135838091373444,-0.06670467555522919
2026-05-01T11:47:00.859000+00:00,1777636020859,S011,33,50,1777636017062,1777636020820,1777636020859,watch_phone_bridge,1777636017002,-0.03290270268917084,-0.009733974933624268,-0.07331252098083496,0.04736090824007988,-0.0821436196565628,-0.026394853368401527
2026-05-01T11:47:00.859000+00:00,1777636020859,S011,33,50,1777636017062,1777636020820,1777636020859,watch_phone_bridge,1777636017022,-0.018892794847488403,0.03371775150299072,-0.07311272621154785,0.3759233355522156,-0.0574704185128212,0.009887093678116798
2026-05-01T11:47:00.859000+00:00,1777636020859,S011,33,50,1777636017062,1777636020820,1777636020859,watch_phone_bridge,1777636017042,0.003832027316093445,0.02074640989303589,-0.011405080556869507,0.6037357449531555,-0.05967266112565994,0.024975765496492386
2026-05-01T11:47:00.859000+00:00,1777636020859,S011,33,50,1777636017062,1777636020820,1777636020859,watch_phone_bridge,1777636017062,0.003694891929626465,0.002819657325744629,-0.03633308410644531,0.47177156805992126,-0.026198439300060272,0.04848737642168999
2026-05-01T11:47:00.903000+00:00,1777636020903,S011,34,50,1777636017264,1777636020821,1777636020903,watch_phone_bridge,1777636017082,-0.003589719533920288,-0.037860095500946045,-0.002632439136505127,0.1279180645942688,-0.005400865338742733,0.020972713828086853
2026-05-01T11:47:00.903000+00:00,1777636020903,S011,34,50,1777636017264,1777636020821,1777636020903,watch_phone_bridge,1777636017103,-0.012731403112411499,-0.035582005977630615,-0.019286304712295532,0.006506685167551041,0.002583634341135621,0.003903237171471119
2026-05-01T11:47:00.903000+00:00,1777636020903,S011,34,50,1777636017264,1777636020821,1777636020903,watch_phone_bridge,1777636017123,-0.007296666502952576,0.04081463813781738,-0.024920910596847534,0.3051359951496124,0.01117982342839241,-0.023465057834982872
2026-05-01T11:47:00.903000+00:00,1777636020903,S011,34,50,1777636017264,1777636020821,1777636020903,watch_phone_bridge,1777636017144,-0.02126850187778473,0.027762115001678467,-0.058301180601119995,0.4365614056587219,0.06337572634220123,-0.011924195103347301
2026-05-01T11:47:00.903000+00:00,1777636020903,S011,34,50,1777636017264,1777636020821,1777636020903,watch_phone_bridge,1777636017170,-0.025298550724983215,-0.021083056926727295,0.0012097954750061035,0.14754928648471832,0.0782342255115509,-0.005201417952775955
2026-05-01T11:47:00.903000+00:00,1777636020903,S011,34,50,1777636017264,1777636020821,1777636020903,watch_phone_bridge,1777636017183,0.001926034688949585,-0.03629690408706665,0.01928648352622986,-0.05034354701638222,0.0598926916718483,-0.016439851373434067
2026-05-01T11:47:00.903000+00:00,1777636020903,S011,34,50,1777636017264,1777636020821,1777636020903,watch_phone_bridge,1777636017203,0.010107472538948059,0.0070220232009887695,0.0037505626678466797,0.006929861381649971,0.05756950378417969,-0.003346260404214263
2026-05-01T11:47:00.903000+00:00,1777636020903,S011,34,50,1777636017264,1777636020821,1777636020903,watch_phone_bridge,1777636017223,0.022015318274497986,0.03931450843811035,-0.010270118713378906,0.13778427243232727,0.06245366111397743,0.015546044334769249
2026-05-01T11:47:00.903000+00:00,1777636020903,S011,34,50,1777636017264,1777636020821,1777636020903,watch_phone_bridge,1777636017243,0.024387359619140625,0.001793503761291504,-0.001605391502380371,0.16215699911117554,0.04401522874832153,0.037329528480768204
2026-05-01T11:47:00.903000+00:00,1777636020903,S011,34,50,1777636017264,1777636020821,1777636020903,watch_phone_bridge,1777636017263,0.015426278114318848,-0.016450107097625732,0.01999303698539734,0.028138745576143265,0.01879703439772129,0.024053139612078667
2026-05-01T11:47:01.043000+00:00,1777636021043,S011,35,50,1777636017466,1777636020883,1777636021043,watch_phone_bridge,1777636017284,0.006941169500350952,-0.046702027320861816,0.029887378215789795,-0.09564870595932007,-0.010711626149713993,-0.003168094903230667
2026-05-01T11:47:01.043000+00:00,1777636021043,S011,35,50,1777636017466,1777636020883,1777636021043,watch_phone_bridge,1777636017304,-0.021273404359817505,-0.004680991172790527,0.01794341206550598,-0.07469629496335983,0.0015899325953796506,-0.0028092602733522654
2026-05-01T11:47:01.043000+00:00,1777636021043,S011,35,50,1777636017466,1777636020883,1777636021043,watch_phone_bridge,1777636017324,-0.008312121033668518,0.022561728954315186,0.03808662295341492,0.028234615921974182,-0.02874286286532879,-0.019392285495996475
2026-05-01T11:47:01.043000+00:00,1777636021043,S011,35,50,1777636017466,1777636020883,1777636021043,watch_phone_bridge,1777636017344,-0.00789758563041687,-0.0009514093399047852,-0.0031465888023376465,0.16034018993377686,-0.029460204765200615,-0.007755389902740717
2026-05-01T11:47:01.043000+00:00,1777636021043,S011,35,50,1777636017466,1777636020883,1777636021043,watch_phone_bridge,1777636017364,-0.025916963815689087,-0.029219985008239746,-0.02221056818962097,0.02186007611453533,0.010215112939476967,-0.028899023309350014
2026-05-01T11:47:01.043000+00:00,1777636021043,S011,35,50,1777636017466,1777636020883,1777636021043,watch_phone_bridge,1777636017384,-0.004841461777687073,-0.010395467281341553,-0.005509078502655029,-0.05999777466058731,-0.0077493926510214806,-0.015297727659344673
2026-05-01T11:47:01.043000+00:00,1777636021043,S011,35,50,1777636017466,1777636020883,1777636021043,watch_phone_bridge,1777636017404,0.01999974250793457,0.049227774143218994,0.0201302170753479,-0.0897199809551239,-0.08029622584581375,0.02701564133167267
2026-05-01T11:47:01.043000+00:00,1777636021043,S011,35,50,1777636017466,1777636020883,1777636021043,watch_phone_bridge,1777636017424,0.0202912837266922,6.079673767089844e-06,0.05895999073982239,-0.09243880212306976,-0.07213690131902695,0.01548825390636921
2026-05-01T11:47:01.043000+00:00,1777636021043,S011,35,50,1777636017466,1777636020883,1777636021043,watch_phone_bridge,1777636017444,-0.015749827027320862,-0.040087103843688965,-0.005295693874359131,-0.11370813846588135,-0.005831574555486441,-0.04386215656995773
2026-05-01T11:47:01.043000+00:00,1777636021043,S011,35,50,1777636017466,1777636020883,1777636021043,watch_phone_bridge,1777636017466,-0.01215432584285736,-0.022995352745056152,-0.05757972598075867,-0.11177122592926025,0.004353076685220003,-0.049416761845350266
2026-05-01T11:47:01.092000+00:00,1777636021092,S011,36,50,1777636017667,1777636020949,1777636021092,watch_phone_bridge,1777636017485,-0.009616553783416748,0.01369023323059082,-0.019770115613937378,-0.08023939281702042,-0.002538043074309826,-0.0054176668636500835
2026-05-01T11:47:01.092000+00:00,1777636021092,S011,36,50,1777636017667,1777636020949,1777636021092,watch_phone_bridge,1777636017505,0.0016136765480041504,0.010609328746795654,0.013171255588531494,-0.01954622194170952,-0.006480320356786251,-0.008230230771005154
2026-05-01T11:47:01.092000+00:00,1777636021092,S011,36,50,1777636017667,1777636020949,1777636021092,watch_phone_bridge,1777636017525,-0.006698876619338989,-0.02944248914718628,0.0058785080909729,0.020177757367491722,-0.028747504577040672,0.01584000326693058
2026-05-01T11:47:01.092000+00:00,1777636021092,S011,36,50,1777636017667,1777636020949,1777636021092,watch_phone_bridge,1777636017545,-0.01974351704120636,0.023282945156097412,-0.040663719177246094,0.26555928587913513,0.0006000737776048481,-0.018060490489006042
2026-05-01T11:47:01.092000+00:00,1777636021092,S011,36,50,1777636017667,1777636020949,1777636021092,watch_phone_bridge,1777636017565,-0.016413241624832153,-0.002819359302520752,-0.03703179955482483,0.3298730254173279,0.0007906419923529029,-0.02337552234530449
2026-05-01T11:47:01.092000+00:00,1777636021092,S011,36,50,1777636017667,1777636020949,1777636021092,watch_phone_bridge,1777636017585,-0.007031038403511047,0.002593398094177246,0.0017370879650115967,0.2813446521759033,0.008075947873294353,-0.029692912474274635
2026-05-01T11:47:01.092000+00:00,1777636021092,S011,36,50,1777636017667,1777636020949,1777636021092,watch_phone_bridge,1777636017605,0.011291205883026123,0.015427947044372559,0.035981953144073486,0.22849392890930176,-0.013243112713098526,-0.05654305964708328
2026-05-01T11:47:01.092000+00:00,1777636021092,S011,36,50,1777636017667,1777636020949,1777636021092,watch_phone_bridge,1777636017625,0.0008767545223236084,-0.005326032638549805,-0.008587479591369629,0.22821351885795593,-0.00270433840341866,-0.05665070563554764
2026-05-01T11:47:01.092000+00:00,1777636021092,S011,36,50,1777636017667,1777636020949,1777636021092,watch_phone_bridge,1777636017645,-0.008956924080848694,0.0004801750183105469,-0.021178364753723145,0.38415756821632385,0.004118756391108036,-0.018262572586536407
2026-05-01T11:47:01.092000+00:00,1777636021092,S011,36,50,1777636017667,1777636020949,1777636021092,watch_phone_bridge,1777636017667,-0.005386471748352051,0.0378035306930542,-0.03482633829116821,0.5987915396690369,0.03509778529405594,-0.016677724197506905
2026-05-01T11:47:01.114000+00:00,1777636021114,S011,37,50,1777636017867,1777636021004,1777636021114,watch_phone_bridge,1777636017686,0.015452653169631958,0.009341716766357422,0.010063797235488892,0.6256961822509766,-0.008012589067220688,-0.030483871698379517
2026-05-01T11:47:01.114000+00:00,1777636021114,S011,37,50,1777636017867,1777636021004,1777636021114,watch_phone_bridge,1777636017705,0.003572627902030945,-0.03496366739273071,0.02076798677444458,0.37158799171447754,-0.0019308424089103937,-0.04454605653882027
2026-05-01T11:47:01.114000+00:00,1777636021114,S011,37,50,1777636017867,1777636021004,1777636021114,watch_phone_bridge,1777636017726,0.002582043409347534,-0.016429364681243896,0.0183049738407135,0.14734956622123718,0.010765626095235348,-0.03558904305100441
2026-05-01T11:47:01.114000+00:00,1777636021114,S011,37,50,1777636017867,1777636021004,1777636021114,watch_phone_bridge,1777636017746,0.013921424746513367,-0.017801940441131592,-0.005464464426040649,0.010134974494576454,0.023150883615016937,-0.02593226172029972
2026-05-01T11:47:01.114000+00:00,1777636021114,S011,37,50,1777636017867,1777636021004,1777636021114,watch_phone_bridge,1777636017766,0.007009252905845642,-0.021259844303131104,-0.014549702405929565,-0.10516738146543503,0.03160234913229942,-0.02700652927160263
2026-05-01T11:47:01.114000+00:00,1777636021114,S011,37,50,1777636017867,1777636021004,1777636021114,watch_phone_bridge,1777636017786,0.0039367228746414185,0.004056155681610107,-0.0011760890483856201,0.026629529893398285,0.014724909327924252,-0.012176450341939926
2026-05-01T11:47:01.114000+00:00,1777636021114,S011,37,50,1777636017867,1777636021004,1777636021114,watch_phone_bridge,1777636017806,0.005302712321281433,0.03285425901412964,-0.01021665334701538,0.09304477274417877,0.012548346072435379,-0.01530918013304472
2026-05-01T11:47:01.114000+00:00,1777636021114,S011,37,50,1777636017867,1777636021004,1777636021114,watch_phone_bridge,1777636017827,0.006709158420562744,-0.011383235454559326,-0.01187819242477417,0.1029789000749588,-0.007093456108123064,0.007065740879625082
2026-05-01T11:47:01.114000+00:00,1777636021114,S011,37,50,1777636017867,1777636021004,1777636021114,watch_phone_bridge,1777636017846,0.011299371719360352,0.02501201629638672,-0.028133392333984375,0.26143378019332886,0.008206555619835854,0.009619126096367836
2026-05-01T11:47:01.114000+00:00,1777636021114,S011,37,50,1777636017867,1777636021004,1777636021114,watch_phone_bridge,1777636017866,-0.013782516121864319,0.0042830705642700195,-0.04871261119842529,0.346150279045105,0.015783781185746193,0.015186251141130924
2026-05-01T11:47:02.065000+00:00,1777636022065,S011,38,50,1777636018067,1777636022047,1777636022065,watch_phone_bridge,1777636017886,0.001563921570777893,0.003532588481903076,0.04423820972442627,0.20382454991340637,0.003253153059631586,-0.0016047126846387982
2026-05-01T11:47:02.065000+00:00,1777636022065,S011,38,50,1777636018067,1777636022047,1777636022065,watch_phone_bridge,1777636017906,-0.0013430863618850708,-0.02687019109725952,0.0049974024295806885,0.18549668788909912,-0.000372056063497439,0.002644627122208476
2026-05-01T11:47:02.065000+00:00,1777636022065,S011,38,50,1777636018067,1777636022047,1777636022065,watch_phone_bridge,1777636017927,-0.00860278308391571,0.0037572383880615234,-0.02680256962776184,0.13787828385829926,0.03202605992555618,0.0020395037718117237
2026-05-01T11:47:02.065000+00:00,1777636022065,S011,38,50,1777636018067,1777636022047,1777636022065,watch_phone_bridge,1777636017947,0.0014184117317199707,-0.020728111267089844,-0.010532110929489136,0.09637665003538132,0.017943035811185837,0.0037303445860743523
2026-05-01T11:47:02.065000+00:00,1777636022065,S011,38,50,1777636018067,1777636022047,1777636022065,watch_phone_bridge,1777636017967,0.0009978711605072021,0.008583903312683105,-0.0052779316902160645,0.16321559250354767,0.016310403123497963,-0.008671517483890057
2026-05-01T11:47:02.065000+00:00,1777636022065,S011,38,50,1777636018067,1777636022047,1777636022065,watch_phone_bridge,1777636017987,0.020733937621116638,0.013292431831359863,0.03459060192108154,0.08219106495380402,-0.004337160848081112,0.003321070224046707
2026-05-01T11:47:02.065000+00:00,1777636022065,S011,38,50,1777636018067,1777636022047,1777636022065,watch_phone_bridge,1777636018007,0.01064908504486084,-0.011598467826843262,0.025772929191589355,0.07006675750017166,-0.0160120390355587,-0.002516312524676323
2026-05-01T11:47:02.065000+00:00,1777636022065,S011,38,50,1777636018067,1777636022047,1777636022065,watch_phone_bridge,1777636018027,0.007895871996879578,-0.0012824535369873047,0.00036260485649108887,0.04720884561538696,-0.015883561223745346,-0.001960510853677988
2026-05-01T11:47:02.065000+00:00,1777636022065,S011,38,50,1777636018067,1777636022047,1777636022065,watch_phone_bridge,1777636018047,0.009483009576797485,-0.011201858520507812,0.01710033416748047,0.07728498429059982,-0.043343834578990936,0.01301172748208046
2026-05-01T11:47:02.065000+00:00,1777636022065,S011,38,50,1777636018067,1777636022047,1777636022065,watch_phone_bridge,1777636018067,0.0016587525606155396,0.017994463443756104,0.011317819356918335,0.1581963300704956,-0.047041021287441254,0.02463967353105545
2026-05-01T11:47:02.101000+00:00,1777636022101,S011,39,50,1777636018269,1777636022064,1777636022101,watch_phone_bridge,1777636018087,-0.0014161914587020874,0.023010671138763428,0.009833812713623047,0.16798239946365356,-0.040325749665498734,0.014535907655954361
2026-05-01T11:47:02.101000+00:00,1777636022101,S011,39,50,1777636018269,1777636022064,1777636022101,watch_phone_bridge,1777636018107,0.007107779383659363,-0.016187667846679688,0.022629976272583008,0.09928349405527115,-0.05832521989941597,0.030633118003606796
2026-05-01T11:47:02.101000+00:00,1777636022101,S011,39,50,1777636018269,1777636022064,1777636022101,watch_phone_bridge,1777636018128,-0.0004416853189468384,-0.008054494857788086,-0.00809335708618164,0.12013737857341766,-0.05947106331586838,0.03814711794257164
2026-05-01T11:47:02.101000+00:00,1777636022101,S011,39,50,1777636018269,1777636022064,1777636022101,watch_phone_bridge,1777636018149,-0.021112307906150818,-0.007204949855804443,-0.023273766040802002,0.13608838617801666,-0.015862256288528442,0.030185068026185036
2026-05-01T11:47:02.101000+00:00,1777636022101,S011,39,50,1777636018269,1777636022064,1777636022101,watch_phone_bridge,1777636018168,-0.034139350056648254,-0.0049149394035339355,-0.034249305725097656,0.2762659788131714,0.008887754753232002,0.0017332934075966477
2026-05-01T11:47:02.101000+00:00,1777636022101,S011,39,50,1777636018269,1777636022064,1777636022101,watch_phone_bridge,1777636018192,-0.01179608702659607,0.014684736728668213,-0.023790597915649414,0.3708907663822174,0.02690647356212139,0.009690179489552975
2026-05-01T11:47:02.101000+00:00,1777636022101,S011,39,50,1777636018269,1777636022064,1777636022101,watch_phone_bridge,1777636018208,-0.011169373989105225,-0.0007491707801818848,-0.023439109325408936,0.391993910074234,0.05248822644352913,0.029655739665031433
2026-05-01T11:47:02.101000+00:00,1777636022101,S011,39,50,1777636018269,1777636022064,1777636022101,watch_phone_bridge,1777636018228,-0.0019381046295166016,-0.0002963542938232422,-0.03748363256454468,0.4173557460308075,0.05582330375909805,0.002247709548100829
2026-05-01T11:47:02.101000+00:00,1777636022101,S011,39,50,1777636018269,1777636022064,1777636022101,watch_phone_bridge,1777636018248,-0.0035767555236816406,-0.038470685482025146,-0.002202272415161133,0.2742515802383423,0.0469452403485775,-0.0008534349617548287
2026-05-01T11:47:02.101000+00:00,1777636022101,S011,39,50,1777636018269,1777636022064,1777636022101,watch_phone_bridge,1777636018268,-0.006792932748794556,-0.02300053834915161,0.01607578992843628,0.16402174532413483,0.03614695742726326,-0.011857456527650356
2026-05-01T11:47:02.134000+00:00,1777636022134,S011,40,50,1777636018469,1777636022066,1777636022134,watch_phone_bridge,1777636018289,-0.00797988474369049,-0.010670006275177002,0.007816523313522339,0.08325658738613129,0.03395445644855499,-0.009050698019564152
2026-05-01T11:47:02.134000+00:00,1777636022134,S011,40,50,1777636018469,1777636022066,1777636022134,watch_phone_bridge,1777636018308,-0.0059240758419036865,-0.02298569679260254,0.011823832988739014,-0.002269495278596878,0.0286304522305727,-0.020584050565958023
2026-05-01T11:47:02.134000+00:00,1777636022134,S011,40,50,1777636018469,1777636022066,1777636022134,watch_phone_bridge,1777636018328,0.0014782249927520752,-0.008963227272033691,0.0030093789100646973,-0.04278789460659027,0.02389504760503769,-0.028579339385032654
2026-05-01T11:47:02.134000+00:00,1777636022134,S011,40,50,1777636018469,1777636022066,1777636022134,watch_phone_bridge,1777636018348,0.0030419379472732544,-0.010563552379608154,-0.008194446563720703,-0.03157305717468262,0.007483660243451595,-0.029915234073996544
2026-05-01T11:47:02.134000+00:00,1777636022134,S011,40,50,1777636018469,1777636022066,1777636022134,watch_phone_bridge,1777636018369,-0.0016637295484542847,-0.005793511867523193,-0.0029450058937072754,-0.06925811618566513,-0.0012618182227015495,-0.04649319872260094
2026-05-01T11:47:02.134000+00:00,1777636022134,S011,40,50,1777636018469,1777636022066,1777636022134,watch_phone_bridge,1777636018388,-0.00037379562854766846,-0.010656893253326416,0.012761294841766357,-0.1391991227865219,-0.024162836372852325,-0.061348043382167816
2026-05-01T11:47:02.134000+00:00,1777636022134,S011,40,50,1777636018469,1777636022066,1777636022134,watch_phone_bridge,1777636018409,-0.0018854737281799316,0.010291874408721924,-0.018679499626159668,-0.060266219079494476,-0.03381919115781784,-0.07873155921697617
2026-05-01T11:47:02.134000+00:00,1777636022134,S011,40,50,1777636018469,1777636022066,1777636022134,watch_phone_bridge,1777636018429,-0.014320671558380127,0.014396607875823975,-0.045303285121917725,0.060442887246608734,-0.030185574665665627,-0.10221771150827408
2026-05-01T11:47:02.134000+00:00,1777636022134,S011,40,50,1777636018469,1777636022066,1777636022134,watch_phone_bridge,1777636018449,0.0012941360473632812,-0.0016631484031677246,0.00022548437118530273,0.047524429857730865,-0.04056764021515846,-0.09200502187013626
2026-05-01T11:47:02.134000+00:00,1777636022134,S011,40,50,1777636018469,1777636022066,1777636022134,watch_phone_bridge,1777636018469,0.011040031909942627,0.02736067771911621,-0.006770610809326172,0.09844779223203659,-0.0479489341378212,-0.08449772745370865
2026-05-01T11:47:02.185000+00:00,1777636022185,S011,41,50,1777636018672,1777636022066,1777636022185,watch_phone_bridge,1777636018489,0.004780501127243042,-0.016246438026428223,0.011863291263580322,0.051433950662612915,-0.051497481763362885,-0.08215712755918503
2026-05-01T11:47:02.185000+00:00,1777636022185,S011,41,50,1777636018672,1777636022066,1777636022185,watch_phone_bridge,1777636018509,0.010490059852600098,-0.013060331344604492,0.015532970428466797,-0.027988707646727562,-0.05233831703662872,-0.07386425882577896
2026-05-01T11:47:02.185000+00:00,1777636022185,S011,41,50,1777636018672,1777636022066,1777636022185,watch_phone_bridge,1777636018529,0.011348262429237366,9.083747863769531e-05,-0.014824151992797852,0.036513589322566986,-0.02464296482503414,-0.03735930100083351
2026-05-01T11:47:02.185000+00:00,1777636022185,S011,41,50,1777636018672,1777636022066,1777636022185,watch_phone_bridge,1777636018549,0.006751105189323425,0.00042939186096191406,-0.01144072413444519,0.09078534692525864,-0.019675636664032936,-0.024630242958664894
2026-05-01T11:47:02.185000+00:00,1777636022185,S011,41,50,1777636018672,1777636022066,1777636022185,watch_phone_bridge,1777636018570,-0.0008628815412521362,-0.012307703495025635,-0.006158709526062012,0.07186092436313629,-0.016588425263762474,-0.01976161263883114
2026-05-01T11:47:02.185000+00:00,1777636022185,S011,41,50,1777636018672,1777636022066,1777636022185,watch_phone_bridge,1777636018590,-0.010978326201438904,-0.013725042343139648,-0.007236093282699585,0.037570059299468994,-0.01915278099477291,-0.021727558225393295
2026-05-01T11:47:02.185000+00:00,1777636022185,S011,41,50,1777636018672,1777636022066,1777636022185,watch_phone_bridge,1777636018610,-0.015392467379570007,-0.0008884668350219727,0.0015015006065368652,0.012527825310826302,-0.021934453397989273,-0.0458318293094635
2026-05-01T11:47:02.185000+00:00,1777636022185,S011,41,50,1777636018672,1777636022066,1777636022185,watch_phone_bridge,1777636018630,-0.006309792399406433,-0.0009574294090270996,-0.02059394121170044,0.0803002119064331,-0.02095654048025608,-0.03072984144091606
2026-05-01T11:47:02.185000+00:00,1777636022185,S011,41,50,1777636018672,1777636022066,1777636022185,watch_phone_bridge,1777636018650,-0.004818171262741089,0.009404778480529785,-0.03612223267555237,0.09761795401573181,-0.011868846602737904,-0.04082513973116875
2026-05-01T11:47:02.185000+00:00,1777636022185,S011,41,50,1777636018672,1777636022066,1777636022185,watch_phone_bridge,1777636018671,0.008595794439315796,-0.00696408748626709,-0.013706892728805542,0.040108323097229004,-0.02003067545592785,-0.047856468707323074
2026-05-01T11:47:03.116000+00:00,1777636023116,S011,42,50,1777636018871,1777636023094,1777636023116,watch_phone_bridge,1777636018692,0.013280540704727173,-0.01403355598449707,-0.004621386528015137,-0.027164725586771965,-0.03327019885182381,-0.034026142209768295
2026-05-01T11:47:03.116000+00:00,1777636023116,S011,42,50,1777636018871,1777636023094,1777636023116,watch_phone_bridge,1777636018710,0.012666195631027222,0.0026592016220092773,-0.00244903564453125,0.024152789264917374,-0.06233951449394226,-0.03164202719926834
